timestamp_ns,wx,wy,wz,ax,ay,az
249829406119375,-0.0026991136837750673,-0.00236275652423501,0.001297225710004568,0.04519055633544922,0.13826514587402344,9.69771382446289
249829416092375,-0.003156378399580717,-0.0020240023732185364,0.0009366337326355278,0.040102877807617184,0.13242927932739257,9.70369932861328
249829426064375,-0.001636246219277382,-0.0030309436842799187,0.0008514125947840512,0.03396773605346679,0.1336263801574707,9.68559317855835
249829436037375,-0.0046362970024347305,-0.0027949875220656395,0.0007414240390062332,0.03426701126098632,0.13332710494995118,9.697115274047851
249829446009375,-0.0031369375064969063,-0.0021494373213499784,-0.0005816344055347145,0.04234744186401367,0.13033435287475587,9.701454764556884
249829455982375,-0.00290444353595376,-0.0019441075855866075,2.7963191314483993e-05,0.03860650177001953,0.13093290328979493,9.701903677368163
249829465954375,-0.003471696749329567,-0.0007323693134821951,0.002208026824519038,0.04219780426025391,0.127042325592041,9.695768535614013
249829475927375,-0.002365952357649803,-0.0027196200098842382,0.0009065400226972997,0.049829322052001954,0.12868833923339842,9.695469260406494
249829485899375,-0.003546531544998288,-0.0022357236593961716,0.00321869645267725,0.040402153015136714,0.13287819213867186,9.70459715423584
249829495872375,-4.793690095539205e-05,-0.0023369237314909697,0.000648479734081775,0.04219780426025391,0.13213000411987305,9.688137017822266
249829505844375,-0.0007089334540069103,-0.0013310478534549475,0.0015864450251683593,0.04848258361816406,0.14469956283569335,9.707739543914794
249829515817375,-0.0022738068364560604,-0.0004743089957628399,0.0005688511882908642,0.044891281127929686,0.12674305038452147,9.69157868270874
249829525789250,-0.0027057717088609934,-0.0026343988720327616,-0.00023968449386302382,0.03366846084594726,0.1327285545349121,9.69801309967041
249829535762250,-0.003239202778786421,-0.002366218715906143,0.0004921521758660674,0.03845686416625976,0.13587094421386717,9.703250415802001
249829545734250,-0.0033928672783076763,-0.0032061797101050615,0.0006471481174230576,0.027533319091796873,0.12689268798828124,9.700856214141846
249829555706250,-0.0021433120127767324,-0.0016056197928264737,0.0008609999786131084,0.03531447448730469,0.13063362808227538,9.686042091369629
249829565679250,-0.0017931063193827868,-0.0005214469274505973,0.00022077605535741895,0.05401917495727539,0.1409586227416992,9.702502227783203
249829575651250,-0.0030245520174503326,-0.0007115966291166842,0.0005781722720712423,0.03800795135498047,0.12644377517700195,9.710881933593749
249829585624250,-0.0021664814557880163,-0.0015627428656443954,0.001916144392453134,0.03456628646850586,0.13063362808227538,9.708487731933593
249829595596250,-0.0015297196805477142,-0.001678057829849422,0.0007611314067617059,0.061949967956542965,0.12719196319580078,9.695469260406494
249829605569250,-0.002372077666223049,-0.0023513049818575382,0.0026618295814841986,0.04578910675048828,0.13542203140258788,9.689184481048583
249829615541250,-0.003683684393763542,-0.0025036376900970936,0.0009408948244526982,0.04504091873168945,0.13138181610107422,9.696516723632811
249829625514250,-0.0013307816116139293,-0.002293780678883195,0.0005661880713887513,0.0383072265625,0.13168109130859373,9.696367086029053
249829635486250,-0.0005424859118647873,-0.002098304685205221,0.00013928332191426307,0.03980360260009765,0.13168109130859373,9.690531219482422
249829645459250,-0.0018168084789067507,-0.0017329188995063305,-5.512743518920615e-05,0.044292730712890624,0.14335282440185546,9.699359838104247
249829655431250,-0.0026900589000433683,-0.0033787523861974478,0.00047643951256759465,0.04908113403320312,0.12808978881835936,9.699958388519287
249829665404250,-0.0031731564085930586,-0.0030985879711806774,0.001002413802780211,0.041748891448974604,0.13631985702514648,9.693374333953857
249829675376250,-0.0023555660154670477,-0.002522279741242528,0.0008644621120765805,0.03486556167602539,0.1427542739868164,9.690231944274903
249829685349250,-0.003933755215257406,-0.0019390475936233997,0.0018722022650763392,0.03531447448730469,0.127042325592041,9.702801502990722
249829695321250,-0.0032738239970058203,-0.0017060210229828954,0.0007384945638477802,0.036361937713623046,0.13871405868530273,9.70354969100952
249829705294250,-0.00373002327978611,-0.001659948262386024,0.0005014732014387846,0.03651157531738281,0.1253963119506836,9.704896429443359
249829715266250,-0.0017275925492867827,-0.001145425601862371,0.0009374326909892261,0.04534019393920898,0.1349731185913086,9.703400053405762
249829725238250,-0.002531867241486907,-0.0010575412306934595,0.0013659353135153651,0.0326209976196289,0.1222539222717285,9.701604402160644
249829735211250,-0.0025302693247795105,9.747169679030776e-05,0.0025273398496210575,0.030974983978271482,0.13138181610107422,9.696815998840332
249829745183250,-0.0028091021813452244,-0.0019979034550487995,0.0009270463488064706,0.037708676147460936,0.12689268798828124,9.694272159576416
249829755156250,-0.001882854849100113,-0.0021164140198379755,0.000556334329303354,0.044292730712890624,0.13347674255371092,9.702202952575684
249829765128250,-0.004455202259123325,-0.002620816696435213,-0.0008143946761265397,0.0383072265625,0.13587094421386717,9.703100778198241
249829775101250,-0.002241050126031041,-0.003634948516264558,0.001689775730483234,0.03621230010986328,0.12629413757324218,9.711630121612549
249829785073250,-0.0014149374328553677,-0.0007198524544946849,9.933590627042577e-05,0.041748891448974604,0.12958616485595703,9.688585930633545
249829795046250,-0.0019896477460861206,-0.002445314545184374,1.25168571685208e-05,0.03725976333618164,0.13302782974243163,9.695918173217773
249829805018250,-0.003343332326039672,-0.0013342436868697405,0.00034354778472334146,0.05102642288208008,0.13332710494995118,9.708637369537353
249829814991250,-0.0036850159522145987,-0.0020868529099971056,0.0018871158827096224,0.051475335693359374,0.14948796615600585,9.711630121612549
249829824963250,-0.0019169433508068323,-0.0030333404429256916,0.0025542378425598145,0.04384381790161133,0.12734160079956053,9.693075058746338
249829834936250,-0.0010492854053154588,-0.0008255799184553325,0.0010540791554376483,0.03950432739257812,0.13946224670410157,9.69771382446289
249829844908250,-0.0034647725988179445,-0.0009161274065263569,0.0006593986763618886,0.03920505218505859,0.12464812393188476,9.696666361236572
249829854881250,-0.0030927290208637714,-0.0023158849216997623,-0.00037230990710668266,0.04548983154296875,0.12434884872436523,9.689334118652344
249829864853250,-0.0026964505668729544,-0.002147573046386242,0.0016706009628251195,0.05102642288208008,0.13437456817626953,9.697264911651612
249829874825250,-0.0023425165563821793,-0.0026136261876672506,0.0026967169251292944,0.049230771636962885,0.13332710494995118,9.701155489349365
249829884798250,-0.0030125677585601807,-0.0029971215408295393,0.0005789712304249406,0.04115034103393554,0.1396118843078613,9.686191728973387
249829894770250,-0.0015219965716823936,-0.0019419770687818527,-0.00012623383372556418,0.036062662506103516,0.1322796417236328,9.698611650085448
249829904743250,-0.001119060325436294,-0.003981425892561674,0.00018615495355334133,0.037110125732421874,0.1327285545349121,9.700556938934326
249829914715250,-0.0020610203500837088,-0.0019624833948910236,0.001978995045647025,0.04608838195800781,0.1318307289123535,9.712378309631347
249829924688250,-0.002546248259022832,-0.002478603972122073,0.0019387812353670597,0.03755903854370117,0.13467384338378904,9.69786346206665
249829934660250,-0.0014647386269643903,-0.0034147051628679037,0.0007653924985788763,0.040701428222656245,0.14380173721313474,9.700856214141846
249829944633250,-0.0025454494170844555,-0.0016929714474827051,-0.0003150519623886794,0.03202244720458984,0.13332710494995118,9.702053314971923
249829954605250,-0.003403519745916128,-0.0029262814205139875,0.0011978897964581847,0.0383072265625,0.13721768264770506,9.69187795791626
249829964578250,-0.0012154667638242245,-0.0021880532149225473,0.0007992146420292556,0.04279635467529297,0.13392565536499024,9.702951140594482
249829974550250,-0.002319879597052932,-0.0021230720449239016,-0.0005249090609140694,0.04085106582641601,0.13123217849731444,9.695169985198975
249829984523250,-0.0027425233274698257,-0.0025158883072435856,-0.0001459412305848673,0.04025251541137695,0.13572130661010742,9.689783031463623
249829994495250,-0.0028991170693188906,-0.0032615733798593283,0.0002961435238830745,0.03127425918579101,0.13542203140258788,9.687388829803465
249830004468250,-0.0028634308837354183,-0.0025774072855710983,-0.00038962045800872147,0.03561374969482422,0.12913725204467771,9.699359838104247
249830014440250,-0.0014226606581360102,-0.0029891319572925568,0.0014671353856101632,0.044891281127929686,0.13482348098754882,9.69756418685913
249830024412250,-0.00239205127581954,-0.003980626817792654,0.00033182985498569906,0.042945992279052735,0.14290391159057617,9.683797527313232
249830034385250,-0.0013145363191142678,-0.00205276464112103,0.0021044297609478235,0.04578910675048828,0.11716624374389648,9.68469535293579
249830044357250,-0.0026258768048137426,-0.00219524372369051,0.0007491472060792148,0.03621230010986328,0.13916297149658202,9.683797527313232
249830054330250,-0.002088983543217182,-0.0005286374944262207,0.0015606123488396406,0.041748891448974604,0.13901333389282225,9.695169985198975
249830064302250,-0.002587793627753854,-0.002088983543217182,0.0007494135061278939,0.04683656997680664,0.12898761444091797,9.692177233123779
249830074275250,-0.0013076120521873236,-0.0027574370615184307,0.0007736482657492161,0.03980360260009765,0.14200608596801756,9.700556938934326
249830084247250,-0.0014998923288658261,-0.0036519928835332394,0.0007928230334073305,0.03396773605346679,0.13512275619506836,9.710433020782471
249830094220250,-0.001698830397799611,-0.001689509372226894,0.000945954816415906,0.04773439559936523,0.12898761444091797,9.69786346206665
249830104192250,-0.0030423952266573906,-0.0018961706664413214,0.0020897823851555586,0.03725976333618164,0.12165537185668944,9.698611650085448
249830114165250,-0.002365419641137123,-0.002978213131427765,0.0011896340874955058,0.042048166656494135,0.1236006607055664,9.702801502990722
249830124137250,-0.0036192359402775764,-0.0007773766992613673,0.0005342300864867866,0.03800795135498047,0.12419921112060546,9.699509475708007
249830134110250,-0.0019630161114037037,-0.0015132081462070346,0.0019081549253314734,0.04279635467529297,0.12524667434692383,9.694421797180174
249830144082250,-0.0017294568242505193,-0.0026581010315567255,0.0008764463127590716,0.03591302490234375,0.13916297149658202,9.715371061706543
249830154054250,-0.003924966789782047,-0.0026466494891792536,-0.0010524812387302518,0.03277063522338867,0.12449848632812499,9.698910925292969
249830164027250,-0.0016314524691551924,-0.003466104157269001,-0.0001030643325066194,0.04129997863769531,0.13766659545898435,9.69786346206665
249830173999250,-0.003552390495315194,-0.0032676986884325743,0.0013057478936389089,0.049230771636962885,0.13811550827026367,9.680206224822998
249830183972250,-0.00221947836689651,-0.003162237349897623,0.0007981493836268783,0.02798223190307617,0.13213000411987305,9.699060562896728
249830193944250,-0.0027683558873832226,-0.0027774106711149216,0.0006159891490824521,0.032920272827148434,0.12988544006347655,9.705644617462157
249830203917250,-0.003276220755651593,-0.0018498316640034318,0.0010064085945487022,0.04369418029785156,0.1336263801574707,9.6917283203125
249830213889250,-0.001961418194696307,-0.0023576964158564806,0.0005382248782552779,0.04967968444824218,0.1236006607055664,9.69083049468994
249830223862250,-0.002092445734888315,-0.0016940367640927434,0.0008351673022843897,0.042945992279052735,0.12898761444091797,9.680655137634277
249830233834250,-0.0020149475894868374,-0.0018362496048212051,0.0009326389990746975,0.05252279891967773,0.13168109130859373,9.685443540954589
249830243807250,-0.0007012102869339287,-0.0033926009200513363,0.001130511867813766,0.03860650177001953,0.13302782974243163,9.70504606704712
249830253779250,-0.0037113812286406755,-0.0020751350093632936,0.0006846986943855882,0.0430956298828125,0.13871405868530273,9.699359838104247
249830263751250,-0.0015747271245345473,-0.002877545543015003,0.0012218583142384887,0.041748891448974604,0.1352723937988281,9.695618898010252
249830273724250,-0.002867958042770624,-0.0017483652336522937,0.0003885551996063441,0.03920505218505859,0.12868833923339842,9.693823246765136
249830283696250,-0.0033577135764062405,-0.0010335728293284774,-0.0003837615076918155,0.028730419921875,0.14021043472290037,9.699958388519287
249830293669250,-0.003363838652148843,-0.0019113506423309445,0.0005933523061685264,0.03247136001586914,0.13198036651611328,9.702502227783203
249830303641250,-0.002867958042770624,-0.002895655110478401,0.001716939965263009,0.03800795135498047,0.1370680450439453,9.702951140594482
249830313614250,-0.0021632856223732233,-0.00222027744166553,0.0012205267557874322,0.0430956298828125,0.14185644836425781,9.699808750915526
249830323586250,-0.0029403960797935724,-0.004058657679706812,0.0010460896883159876,0.04773439559936523,0.1336263801574707,9.699659113311768
249830333559250,-0.002031991956755519,-0.0010357033461332321,0.0010450243717059493,0.05132569808959961,0.13347674255371092,9.694272159576416
249830343531250,-0.0023369237314909697,-0.0026162895374000072,0.000996554852463305,0.049230771636962885,0.14260463638305662,9.690980132293701
249830353504250,-0.003910585772246122,-0.003471430391073227,0.0005930859479121864,0.055066638183593745,0.12449848632812499,9.699808750915526
249830363476250,-0.0024676851462572813,-0.0017696705181151628,0.0023313311394304037,0.05087678527832031,0.13631985702514648,9.70968483276367
249830373448250,-0.0018953717080876231,-0.00296276668086648,0.0009116000146605074,0.04548983154296875,0.1527799934387207,9.692626145935058
249830383421250,-0.0014407701091840863,-0.0030274814926087856,0.0009707222343422472,0.037708676147460936,0.14050970993041992,9.692626145935058
249830393393250,-0.002370745874941349,-0.0016354472609236836,0.0006886934279464185,0.0469862075805664,0.12943652725219726,9.687089554595946
249830403366250,-0.003897003596648574,-0.0015712650492787361,0.0015523566398769617,0.051774610900878905,0.12988544006347655,9.687239192199707
249830413338250,-0.0026016421616077423,-0.002104163635522127,0.0016823188634589314,0.0378583137512207,0.13631985702514648,9.701903677368163
249830423311250,-0.0024975123815238476,-0.0017797905020415783,0.0009097357979044318,0.03456628646850586,0.1322796417236328,9.714772511291503
249830433283250,-0.0016285229939967394,-0.0029382656794041395,0.00019494339358061552,0.05731120223999023,0.13512275619506836,9.699359838104247
249830443256250,-0.003038400551304221,-0.002626675646752119,0.0002681803307496011,0.03860650177001953,0.13078326568603516,9.69696563644409
249830453228250,-0.0025630262680351734,-0.0015403723809868097,-0.00028575718170031905,0.029328970336914062,0.12973580245971678,9.708487731933593
249830463201250,-0.0025992451701313257,-0.0035715652629733086,-9.853696246864274e-05,0.03651157531738281,0.1393126091003418,9.692177233123779
249830473173250,-0.002894856035709381,-0.0025782061275094748,0.00039281626231968403,0.043544542694091797,0.1274912384033203,9.702502227783203
249830483145250,-0.00443842401728034,-0.0017267935909330845,0.0021558289881795645,0.04444236831665039,0.13467384338378904,9.680505500030517
249830493118250,-0.002019741339609027,-0.0014303837670013309,0.002344913315027952,0.048931496429443354,0.13631985702514648,9.69831237487793
249830503090250,-0.0015033544041216373,-0.0006772418855689466,0.001258609932847321,0.044592005920410155,0.13332710494995118,9.692626145935058
249830513063250,-0.0026852653827518225,-0.002576075727120042,0.00017177389236167073,0.032172084808349606,0.1301847152709961,9.6917283203125
249830523035000,-0.003114566905423999,-0.0026730147656053305,0.0007688545738346875,0.03277063522338867,0.13377601776123046,9.690231944274903
249830533008000,-0.002299373270943761,-0.0018929748330265284,0.0007475492893718183,0.0383072265625,0.13302782974243163,9.697264911651612
249830542980000,-0.0020519655663520098,-0.0014381069922819734,0.002457032445818186,0.044891281127929686,0.1301847152709961,9.690980132293701
249830552953000,-0.0016322514275088906,-0.0008772452711127698,0.0004676510870922357,0.04504091873168945,0.1331774673461914,9.68529390335083
249830562925000,-0.003311907174065709,-0.002547047333791852,0.0012157330056652427,0.042048166656494135,0.13811550827026367,9.694870709991454
249830572898000,-0.0030003173742443323,-0.003192331176251173,0.002606702037155628,0.04085106582641601,0.1352723937988281,9.683647889709473
249830582870000,-0.003567570587620139,-0.002326803747564554,0.0013339773286134005,0.04159925384521484,0.11686696853637694,9.706093530273437
249830592842000,-0.0011582087026908994,-0.0028581044171005487,0.0016354472609236836,0.04219780426025391,0.12988544006347655,9.708787007141114
249830602815000,-0.0027214842848479748,-0.00247594085521996,0.0016399745363742113,0.04608838195800781,0.1352723937988281,9.70459715423584
249830612787000,-0.0011382350930944085,-0.002673813607543707,0.000630636524874717,0.04548983154296875,0.12853870162963865,9.687388829803465
249830622760000,-0.0011201255256310105,-0.0033625070936977863,0.0009552759001962841,0.04129997863769531,0.1301847152709961,9.697264911651612
249830632732000,-0.002523078816011548,-0.001139300293289125,0.00012410330236889422,0.04249707946777344,0.1322796417236328,9.69142904510498
249830642705000,-0.0011976235546171665,-0.0028399948496371508,0.0009568737586960196,0.04159925384521484,0.12913725204467771,9.69157868270874
249830652677000,-0.0027976506389677525,-0.002877279184758663,-0.0016437029698863626,0.052073886108398436,0.1327285545349121,9.695469260406494
249830662650000,-0.002159024588763714,-0.001862614881247282,0.00270683690905571,0.03755903854370117,0.13631985702514648,9.698611650085448
249830672622000,-0.002901247702538967,-0.0019238675013184547,0.0010157296201214194,0.038756139373779294,0.13287819213867186,9.686191728973387
249830682594000,-0.0016498282784596086,-0.0006823018775321543,0.002156627830117941,0.02798223190307617,0.1331774673461914,9.69846201248169
249830692567000,-0.004444282967597246,-0.0010865697404369712,-0.00036245622322894633,0.04144961624145507,0.13976152191162108,9.696217448425292
249830702539000,-0.0013275857781991363,-0.0014114753575995564,0.0026674221735447645,0.04504091873168945,0.136619132232666,9.69187795791626
249830712512000,-0.0014780544443055987,-0.003406715579330921,0.0010037453612312675,0.053420624542236325,0.13213000411987305,9.705195704650878
249830722484000,-0.0038602519780397415,-0.00112438655924052,-0.0006580671179108322,0.04638765716552734,0.1370680450439453,9.695319622802733
249830732457000,-0.00047617321251891553,-0.0028064390644431114,0.0011036139912903309,0.04189852905273437,0.14155717315673827,9.700556938934326
249830742429000,-0.0033712955191731453,-0.0016892430139705539,0.0013539510546252131,0.040102877807617184,0.13512275619506836,9.699359838104247
249830752402000,-0.003081809962168336,-0.001535312389023602,0.0007560714147984982,0.050727147674560547,0.13602058181762694,9.693673609161376
249830762374000,-0.0023992417845875025,-0.0017680726014077663,0.0010759170399978757,0.041748891448974604,0.13976152191162108,9.689184481048583
249830772346000,-0.001264202524907887,-0.0016940367640927434,0.0017217335989698768,0.045938744354248044,0.14963760375976562,9.709385557556152
249830782319000,-0.0027955202385783195,-0.001332912128418684,0.0007576693315058947,0.030974983978271482,0.1384147834777832,9.699659113311768
249830792291000,-0.0028778119012713432,-0.000441818410763517,0.0004426173691172153,0.03396773605346679,0.12853870162963865,9.688436293029785
249830802264000,-0.0032290827948600054,-0.0016759273130446672,-8.175904804375023e-05,0.04548983154296875,0.13916297149658202,9.696367086029053
249830812236000,-0.002397910226136446,-0.0013877731980755925,0.0011209244839847088,0.04115034103393554,0.12898761444091797,9.698910925292969
249830822209000,-0.0020564929582178593,-0.0030948594212532043,0.0018788601737469435,0.0330699104309082,0.12764087600708007,9.712378309631347
249830832181000,-0.002695651724934578,-0.0007946872501634061,0.0009209210984408855,0.04504091873168945,0.1288379768371582,9.69771382446289
249830842154000,-0.002829608740285039,-0.0027808728627860546,0.0016080166678875685,0.048183308410644526,0.14200608596801756,9.707440268707275
249830852126000,-0.0018548916559666395,-0.0019507654942572117,0.001799764228053391,0.04055179061889648,0.13332710494995118,9.692177233123779
249830862098000,-0.002769687445834279,-0.0018809906905516982,0.002055427758023143,0.035464112091064454,0.12659341278076172,9.687538467407226
249830872071000,-0.003990214318037033,-0.0015518239233642817,0.0009504822082817554,0.047285482788085934,0.12015899581909179,9.684396077728271
249830882043000,-0.0019648801535367966,-0.0014919028617441654,0.0010969560826197267,0.044891281127929686,0.1261444999694824,9.686341366577148
249830892016000,-0.0026202842127531767,-0.0020245350897312164,0.0020208065398037434,0.04085106582641601,0.12898761444091797,9.687688105010986
249830901988000,-0.002525741932913661,-0.002192314248532057,0.0006884271278977394,0.0430956298828125,0.131531453704834,9.700556938934326
249830911961000,-0.003367833560332656,-0.0013869742397218943,0.0005885586142539978,0.037708676147460936,0.13991115951538086,9.673173257446289
249830921933000,-0.002787264296784997,-0.002469815546646714,0.00020373181905597448,0.04519055633544922,0.13946224670410157,9.688286655426024
249830931906000,-0.003350256709381938,-0.002831739140674472,0.0016479641199111938,0.04534019393920898,0.12120645904541015,9.692177233123779
249830941878000,-0.0017811221769079566,-0.003629089565947652,0.002335858531296253,0.03007715835571289,0.14050970993041992,9.687388829803465
249830951850000,-0.0018037590198218822,-0.00239151855930686,0.000702009245287627,0.0378583137512207,0.14993687896728514,9.705794255065918
249830961823000,-9.054747351910919e-06,-8.841694943839684e-05,-0.0005544701125472784,0.037708676147460936,0.1318307289123535,9.688735568237304
249830971795000,-0.0029316076543182135,-0.0007302387384697795,0.0016495619202032685,0.04474164352416992,0.12958616485595703,9.695618898010252
249830981768000,-0.0008921589469537139,-0.001383512164466083,0.002110288944095373,0.03666121292114258,0.1158195053100586,9.705794255065918
249830991740000,-0.00279072648845613,-0.0011116034584119916,0.0023403859231621027,0.027234043884277342,0.12255319747924803,9.68484499053955
249831001713000,-0.0018956380663439631,-0.0016977651976048946,0.000571248063351959,0.02858078231811523,0.1345242057800293,9.689633393859863
249831011685000,-0.003148122690618038,-0.001091896090656519,0.0018676748732104897,0.05282207412719726,0.14260463638305662,9.69741454925537
249831021658000,-0.0028453213162720203,-0.0021427792962640524,0.0014266553334891796,0.04608838195800781,0.14380173721313474,9.696666361236572
249831031630000,-0.0018924422329291701,-0.003540938952937722,0.0008873652550391853,0.042048166656494135,0.127042325592041,9.693673609161376
249831041602000,-0.004009655211120844,-0.0016365124611184,0.0009584716754034162,0.0474351203918457,0.13302782974243163,9.694272159576416
249831051575000,-0.0032197616528719664,-0.001073786523193121,-0.0005251753609627485,0.032172084808349606,0.12988544006347655,9.686191728973387
249831061547000,-0.0034961977507919073,-0.0030125677585601807,8.655273268232122e-05,0.03696048812866211,0.13422493057250975,9.693972884368895
249831071520000,-0.002101234160363674,-0.0037862160243093967,0.0008567389450035989,0.03845686416625976,0.1409586227416992,9.686042091369629
249831081492000,-0.0024615598376840353,-0.0011377023765817285,0.0008868326549418271,0.04444236831665039,0.1379658706665039,9.692027595520019
249831091465000,-0.003919640555977821,-0.0022274679504334927,-0.0007992146420292556,0.04115034103393554,0.1240495735168457,9.700856214141846
249831101437000,-0.00324825756251812,-0.002004827605560422,-7.590009045088664e-05,0.03411737365722656,0.13123217849731444,9.700706576538085
249831111410000,-0.0026232136879116297,-0.0018200043123215437,0.0008689894457347691,0.035763387298583985,0.1336263801574707,9.696217448425292
249831121382000,-0.0034056503791362047,-0.0024346618447452784,0.001228782464750111,0.04249707946777344,0.13377601776123046,9.672574707031249
249831131354000,-0.0022596921771764755,-0.001430916483514011,0.0014375743921846151,0.05162497329711914,0.12913725204467771,9.693075058746338
249831141327000,-0.003971305675804615,-0.004067711997777224,0.0020013656467199326,0.03172317199707031,0.12569558715820311,9.692925421142577
249831151299000,-0.002811232814565301,-0.0008713863207958639,-0.00012383698776829988,0.03860650177001953,0.13826514587402344,9.675717096710205
249831161272000,-0.002671683207154274,-0.0018911106744781137,0.0018575548892840743,0.042646717071533204,0.136619132232666,9.69756418685913
249831171244000,-0.0014868428697809577,-0.0026517093647271395,0.0002790992730297148,0.031872809600830075,0.12330138549804687,9.705794255065918
249831181217000,-0.0013792511308565736,-0.0009552759001962841,0.0013598100049421191,0.03277063522338867,0.12045827102661132,9.697264911651612
249831191189000,-0.002419215627014637,-0.001374723738990724,0.002180329989641905,0.04683656997680664,0.13976152191162108,9.703250415802001
249831201161000,-0.0020873856265097857,-0.0010165285784751177,0.0005169195355847478,0.044891281127929686,0.13078326568603516,9.707739543914794
249831211134000,-0.001511610229499638,0.00012650014832615852,0.0016397082945331931,0.04563946914672851,0.13392565536499024,9.696516723632811
249831221106000,-0.002808569697663188,-0.0004271710349712521,0.0015243934467434883,0.03666121292114258,0.1384147834777832,9.69187795791626
249831231079000,-0.001657285145483911,-0.0016998957144096494,0.00040426786290481687,0.04519055633544922,0.13721768264770506,9.687837742614745
249831241051000,-0.002091913018375635,-0.0022426480427384377,-0.0002620550512801856,0.04668693237304687,0.13257891693115234,9.693224696350097
249831251024000,-0.0022972426377236843,-0.002769953804090619,0.00020959076937288046,0.031573534393310544,0.12988544006347655,9.70459715423584
249831260996000,-0.002127066720277071,-0.001315068919211626,2.3169501218944788e-05,0.03007715835571289,0.12644377517700195,9.693374333953857
249831270969000,-0.0018490327056497335,-0.0006343649583868682,0.0029553098138421774,0.03591302490234375,0.12509703674316405,9.68409680252075
249831280941000,-0.002660231664776802,-0.0017600831342861056,0.002986735198646784,0.049530046844482416,0.1304839904785156,9.699659113311768
249831290913000,-0.002290584845468402,-0.0024668860714882612,0.0004822984628845006,0.03965396499633789,0.12719196319580078,9.690381581878661
249831300886000,-0.0015243934467434883,-0.0022186795249581337,0.0013600763631984591,0.03426701126098632,0.13347674255371092,9.68469535293579
249831310858000,-0.003400590270757675,-0.0015547533985227346,0.0016812535468488932,0.037708676147460936,0.13437456817626953,9.699210200500488
249831320831000,-0.0008958873804658651,-0.002531600883230567,0.0015488944482058287,0.04803367080688476,0.1361702194213867,9.694272159576416
249831330803000,-0.0011520835105329752,-0.002049568807706237,0.00036139096482656896,0.04144961624145507,0.12255319747924803,9.700407301330566
249831340776000,-0.001942509668879211,-0.002837331732735038,0.0027507790364325047,0.04578910675048828,0.12823942642211913,9.698910925292969
249831350748000,-0.0011592740193009377,-0.0036101811565458775,0.0012351741315796971,0.03516483688354492,0.12105682144165038,9.694571434783935
249831360721000,-0.0017086841398850083,-0.0028964539524167776,0.002035187790170312,0.030526071166992186,0.12300211029052734,9.695768535614013
249831370693000,-0.0025329324416816235,-0.002681004349142313,-4.5540054998127744e-05,0.032920272827148434,0.13871405868530273,9.69142904510498
249831380665000,-0.0020359866321086884,-0.004187820944935083,0.00039015308720991015,0.035763387298583985,0.13392565536499024,9.687388829803465
249831390638000,-0.0024807346053421497,-0.0021789984311908484,0.00044607947347685695,0.03950432739257812,0.12943652725219726,9.692027595520019
249831400610000,-0.003174487967044115,-0.0008346347021870315,0.001505484920926392,0.025887305450439452,0.14155717315673827,9.683647889709473
249831410583000,-0.003937483765184879,-0.00333241350017488,0.0009680590592324734,0.03950432739257812,0.13587094421386717,9.69083049468994
249831420555000,-0.0011536814272403717,-0.0035803536884486675,0.00021731393644586205,0.04234744186401367,0.13242927932739257,9.690531219482422
249831430528000,-0.002296710154041648,-0.002475142013281584,0.0013235911028459668,0.04414309310913086,0.1327285545349121,9.703848966217041
249831440500000,-0.0011318434262648225,-0.0016082830261439085,0.0009291769238188863,0.032920272827148434,0.12285247268676758,9.690531219482422
249831450473000,-0.0020746025256812572,-0.002898584585636854,0.0018181400373578072,0.041748891448974604,0.14484920043945312,9.680655137634277
249831460445000,-0.0030213561840355396,-0.002287655370309949,0.0015614113071933389,0.03980360260009765,0.1327285545349121,9.689483756256102
249831470417000,-0.0035420041531324387,-0.001648230361752212,0.0017182715237140656,0.04399345550537109,0.13332710494995118,9.70369932861328
249831480390000,-0.002843723399564624,-0.0016506272368133068,0.0005198490689508617,0.033818098449707026,0.12808978881835936,9.677812023162842
249831490362000,-0.003811516100540757,-0.0027539748698472977,0.0005808354471810162,0.04474164352416992,0.12434884872436523,9.70444751663208
249831500335000,-0.0033574472181499004,-0.0017965685110539198,0.0013174657942727208,0.053121349334716794,0.12973580245971678,9.702202952575684
249831510307000,-0.0033340114168822765,-0.001529453438706696,0.0015590144321322441,0.03277063522338867,0.12375029830932617,9.698162737274169
249831520280000,-0.004203533288091421,-0.0015904398169368505,-0.0021752698812633753,0.023792378997802732,0.12644377517700195,9.69741454925537
249831530251917,-0.0013997574569657445,-0.0021675468888133764,0.003040797309949994,0.041000703430175776,0.13003507766723632,9.693523971557617
249831540224917,-0.002110288944095373,-0.003011236200109124,-0.00017230652156285942,0.03651157531738281,0.12674305038452147,9.711630121612549
249831550196917,-0.002228799508884549,-0.0021025657188147306,0.001312139444053173,0.031872809600830075,0.13138181610107422,9.702801502990722
249831560168917,-0.0007382282637991011,-0.00044341632747091353,0.0007715177489444613,0.02633621826171875,0.13422493057250975,9.694272159576416
249831570141917,-0.0027390611357986927,-0.002936667762696743,0.00047058056225068867,0.04085106582641601,0.12524667434692383,9.688137017822266
249831580113917,-0.0026487798895686865,-0.0023941819090396166,0.0018687400734052062,0.04534019393920898,0.13631985702514648,9.702801502990722
249831590086917,-0.002186721656471491,-0.002700711600482464,0.0007451524725183845,0.037708676147460936,0.12808978881835936,9.694721072387695
249831600058917,-0.002326537622138858,-0.0023286680225282907,0.0015686018159613013,0.03860650177001953,0.12988544006347655,9.679158761596678
249831610031917,-0.0013526194961741567,-0.0034117756877094507,8.655273268232122e-05,0.03890577697753906,0.13377601776123046,9.692925421142577
249831620003917,-0.0016535567119717598,-0.002953445538878441,0.0007619303651154041,0.04578910675048828,0.12853870162963865,9.698761287689209
249831629976917,-0.0025893915444612503,-0.004053330980241299,0.001924932817928493,0.04414309310913086,0.13572130661010742,9.680206224822998
249831639948917,-0.0034147051628679037,-0.003065032185986638,0.0018032263033092022,0.04399345550537109,0.13123217849731444,9.694421797180174
249831649920917,-0.003102316288277507,-0.0009257147903554142,0.0013307816116139293,0.044592005920410155,0.13602058181762694,9.687538467407226
249831659893917,-0.00046339002437889576,-0.002612827345728874,0.0016916398890316486,0.037110125732421874,0.12988544006347655,9.690531219482422
249831669865917,-0.0028879318851977587,-0.002412557601928711,0.0009840379934757948,0.04414309310913086,0.136619132232666,9.690381581878661
249831679838917,-0.0032703618053346872,-0.0022865901701152325,0.0019060244085267186,0.0469862075805664,0.13213000411987305,9.689633393859863
249831689810917,-0.0025545042008161545,-0.0013217268278822303,0.0028397287242114544,0.03696048812866211,0.13721768264770506,9.696067810821532
249831699783917,-0.002772616920992732,-0.0014660701854154468,0.0009619337506592274,0.030825346374511717,0.12105682144165038,9.702801502990722
249831709755917,-0.003519633784890175,-0.0017933726776391268,0.0010463559301570058,0.03800795135498047,0.12943652725219726,9.686491004180908
249831719728917,-0.0023118900135159492,-0.000746750389225781,0.0010775149567052722,0.025887305450439452,0.12973580245971678,9.703400053405762
249831729700917,-0.0023044333793222904,-0.0037617150228470564,-0.0005912217311561108,0.01840542526245117,0.14380173721313474,9.70504606704712
249831739672917,-0.0029696908313781023,-0.0012492889072746038,0.0008902947301976383,0.03247136001586914,0.1349731185913086,9.694272159576416
249831749645917,-0.0038285604678094387,-0.002298840554431081,0.002374474424868822,0.03232172241210937,0.1249473991394043,9.690980132293701
249831759617917,-0.0027079021092504263,-0.0031063109636306763,0.002499909373000264,0.033219548034667964,0.12988544006347655,9.699060562896728
249831769590917,-0.001975266495719552,-0.0020812603179365396,0.00021731393644586205,0.039354689788818356,0.13976152191162108,9.688735568237304
249831779562917,-0.0036330842413008213,-0.001044225413352251,0.0006982808117754757,0.04085106582641601,0.13093290328979493,9.69127940750122
249831789535917,-0.002088983543217182,-0.001050617080181837,-0.0004620584368240088,0.03696048812866211,0.12210428466796874,9.689334118652344
249831799507917,-0.001933721243403852,-0.0023161512799561024,0.0014263890916481614,0.03725976333618164,0.12554594955444334,9.6917283203125
249831809479917,-0.0032144354190677404,-0.0025939189363271,0.0017739315517246723,0.04638765716552734,0.13138181610107422,9.675717096710205
249831819452917,-0.002864762442186475,-0.0017563547007739544,0.001216798322275281,0.03950432739257812,0.1304839904785156,9.693673609161376
249831829424917,-0.003597398055717349,-0.0022173479665070772,-0.00030866035376675427,0.043245267486572266,0.13676876983642577,9.7039986038208
249831839397917,-0.002928145695477724,-0.0021699436474591494,0.0015283881220966578,0.043245267486572266,0.13003507766723632,9.693075058746338
249831849369917,-0.0018631474813446403,-0.001469532260671258,0.0016170714516192675,0.049230771636962885,0.1409586227416992,9.69142904510498
249831859342917,-0.0027869981713593006,-0.0020540961995720863,-0.0009824400767683983,0.05057751007080078,0.14619593887329102,9.699659113311768
249831869314917,-0.002572879893705249,-0.0007475492893718183,0.001044758129864931,0.04519055633544922,0.1283890640258789,9.69068085708618
249831879287917,-0.0017009610310196877,-0.003207511268556118,0.0015462313313037157,0.03651157531738281,0.13602058181762694,9.698910925292969
249831889259917,-0.004978779703378677,-0.0013427657540887594,0.0018785938154906034,0.04519055633544922,0.13631985702514648,9.696217448425292
249831899231917,-0.0026818031910806894,-0.003150519449263811,0.0018109495285898447,0.042646717071533204,0.1327285545349121,9.69112976989746
249831909204917,-0.001982190879061818,-0.0017619474092498422,0.0007344998302869499,0.04938040924072265,0.13721768264770506,9.694421797180174
249831919176917,-0.0016503608785569668,-0.001894839107990265,0.00213558878749609,0.04668693237304687,0.1227028350830078,9.693523971557617
249831929149917,-0.0017451694002375007,-0.0015843145083636045,0.0023912524338811636,0.0326209976196289,0.13078326568603516,9.694122521972655
249831939121917,-0.0029875340405851603,-0.0027771443128585815,0.00018189390539191663,0.0378583137512207,0.1370680450439453,9.69157868270874
249831949094917,-0.002460228279232979,-0.003404052462428808,-8.602010348113254e-05,0.02858078231811523,0.14245499877929688,9.711330846405028
249831959066917,-0.0025987126864492893,-0.0031704932916909456,0.00019467707898002118,0.035763387298583985,0.13766659545898435,9.69771382446289
249831969039917,-0.004299940075725317,-0.0018823222490027547,0.002110288944095373,0.03486556167602539,0.12674305038452147,9.69068085708618
249831979011917,-0.003319630166515708,-0.0016980315558612347,0.001463673310354352,0.03666121292114258,0.13198036651611328,9.693374333953857
249831988983917,-0.0016948357224464417,-0.00227860058657825,0.0008141283178701997,0.030974983978271482,0.13198036651611328,9.689034843444823
249831998956917,-0.0017329188995063305,-0.0012442287988960743,0.0013432984706014395,0.040701428222656245,0.13676876983642577,9.707440268707275
249832008928917,-0.0007741809240542352,-0.0030562435276806355,0.0014415690675377846,0.04219780426025391,0.1331774673461914,9.687089554595946
249832018901917,-0.0027811392210423946,-0.0019571571610867977,0.00044821001938544214,0.03890577697753906,0.12913725204467771,9.707889181518555
249832028873917,-0.0011472897604107857,-0.002426938619464636,0.0007203850545920432,0.03845686416625976,0.13033435287475587,9.698910925292969
249832038846917,-0.002508165081962943,-0.0026557042729109526,0.0007392935222014785,0.03681085052490234,0.14395137481689452,9.6779616607666
249832048818917,-0.002743322169408202,-0.0022120214998722076,0.0008873652550391853,0.055365913391113276,0.13093290328979493,9.690082306671142
249832058791917,-0.0013704627053812146,-0.0029284118209034204,9.720538218971342e-05,0.04055179061889648,0.12853870162963865,9.693374333953857
249832068763917,-0.0030123014003038406,-0.0018407768802717328,-0.0020631509833037853,0.023642741394042967,0.13287819213867186,9.699060562896728
249832078736917,-0.002159557305276394,-0.0022895196452736855,0.0021579593885689974,0.0430956298828125,0.1304839904785156,9.67885948638916
249832088708917,-0.003215500619262457,-0.0017265273490920663,0.0012863067677244544,0.025139117431640625,0.13512275619506836,9.699509475708007
249832098680917,-0.0034328147303313017,-0.002921221312135458,0.002243713242933154,0.040402153015136714,0.12988544006347655,9.706542443084716
249832108653917,-0.0018455706303939223,-0.0031246868893504143,-1.4913702216290403e-05,0.03411737365722656,0.1393126091003418,9.69741454925537
249832118625917,-0.002927612978965044,-0.00267780851572752,0.0011089402250945568,0.03441664886474609,0.1288379768371582,9.69786346206665
249832128598917,-0.0017893778858706355,-0.004628574009984732,0.0003701793903019279,0.03591302490234375,0.13916297149658202,9.69083049468994
249832138570917,-0.002828809665516019,-0.0032924660481512547,0.0007952199084684253,0.04339490509033203,0.1384147834777832,9.688735568237304
249832148543917,-0.0020969731267541647,-9.480853623244911e-05,0.0007590008899569511,0.04219780426025391,0.14859014053344727,9.699210200500488
249832158515917,-0.0020362529903650284,-0.003689543344080448,0.0011624698527157307,0.04339490509033203,0.1240495735168457,9.689932669067382
249832168488917,-0.0033427998423576355,-0.001591771375387907,0.001702026231214404,0.04773439559936523,0.13691840744018555,9.702053314971923
249832178460917,-0.0025443839840590954,-0.00401578051969409,0.0009171926649287343,0.04055179061889648,0.14544775085449219,9.675118546295165
249832188432917,-0.0017619474092498422,-0.0024924525059759617,0.0014064153656363487,0.03980360260009765,0.1375169578552246,9.695469260406494
249832198405917,-0.0016554208705201745,-0.003049319377169013,0.001999235013499856,0.044292730712890624,0.12898761444091797,9.697264911651612
249832208377917,-0.005124987103044987,-0.0020663465838879347,0.0006322344415821135,0.045938744354248044,0.13332710494995118,9.70504606704712
249832218350917,-0.0023009711876511574,-0.0036874127108603716,0.0035206989850848913,0.04683656997680664,0.13976152191162108,9.683348614501952
249832228322917,-0.0031670311000198126,-0.0031409321818500757,0.00040613205055706203,0.05282207412719726,0.13213000411987305,9.686640641784667
249832238295917,-0.0023784691002219915,-0.001788312685675919,0.0004266384057700634,0.04249707946777344,0.14200608596801756,9.695469260406494
249832248267917,-0.0016964336391538382,-0.0020730046089738607,0.00041252365917898715,0.029478607940673827,0.1375169578552246,9.692326870727538
249832258240917,-0.0026077672373503447,-0.0025475798174738884,0.0016476977616548538,0.04055179061889648,0.1301847152709961,9.705494979858399
249832268212917,-0.002240251051262021,-0.0019201391842216253,0.001139033935032785,0.041748891448974604,0.12853870162963865,9.683797527313232
249832278184917,-0.0026341325137764215,-0.0016743293963372707,0.0007278419216163456,0.0330699104309082,0.13302782974243163,9.692775783538817
249832288157917,-0.0014261227333918214,-0.002585130510851741,0.0007352987886406481,0.031573534393310544,0.13781623306274413,9.707589906311034
249832298129917,-0.001064998097717762,-0.0016695356462150812,0.00022290658671408892,0.035763387298583985,0.12375029830932617,9.693374333953857
249832308102917,-0.0023403859231621027,-0.0020991035271435976,-0.00026019083452410996,0.03411737365722656,0.12898761444091797,9.709086282348633
249832318074917,-0.0018399780383333564,-0.0011712582781910896,0.00041012681322172284,0.04249707946777344,0.14499883804321287,9.714024323272705
249832328047917,-0.0029028456192463636,-0.0025715483352541924,0.002040780382230878,0.03486556167602539,0.13198036651611328,9.690381581878661
249832338019917,-0.0029529130551964045,-0.0020540961995720863,0.001615207176655531,0.039055414581298825,0.1236006607055664,9.69696563644409
249832347992917,-0.002672215923666954,-0.0011374361347407103,-0.0005153216770850122,0.054468087768554684,0.14454992523193358,9.69741454925537
249832357964917,-0.0010138654615730047,-0.002424275502562523,0.0023491743486374617,0.04534019393920898,0.12913725204467771,9.69771382446289
249832367936917,-0.0031784826423972845,-0.0012239888310432434,0.0010151970200240612,0.03860650177001953,0.1304839904785156,9.695319622802733
249832377909917,-0.003772101365029812,-0.0032048479188233614,0.0021670141723006964,0.0430956298828125,0.1393126091003418,9.695319622802733
249832387881917,-0.0028301412239670753,-0.0025334651581943035,0.0021995047573000193,0.032920272827148434,0.13198036651611328,9.683348614501952
249832397854917,-0.0031164311803877354,-0.0023401195649057627,-2.4234765078290366e-05,0.03336918563842773,0.1336263801574707,9.696067810821532
249832407826917,-0.0030059099663048983,-0.0017869811272248626,0.0018817896489053965,0.03007715835571289,0.13766659545898435,9.695768535614013
249832417799917,-0.002764361212030053,-0.0010780475568026304,3.7017940485384315e-05,0.046238019561767575,0.12868833923339842,9.694272159576416
249832427771917,-0.000621848099399358,-0.002986735198646784,0.0017004283145070076,0.026785131072998045,0.13676876983642577,9.702352590179443
249832437744917,-0.002429868094623089,-0.0023033679462969303,0.0029289445374161005,0.03501519927978516,0.12345102310180664,9.701005851745604
249832447716917,-0.0018319884547963738,-0.0012966931099072099,0.0006032059900462627,0.04234744186401367,0.13302782974243163,9.682899701690673
249832457688917,-0.0030029804911464453,-0.002951581496745348,0.0014868428697809577,0.03202244720458984,0.12030863342285156,9.689932669067382
249832467661917,-0.0021403825376182795,-0.0016293219523504376,0.0026490462478250265,0.03456628646850586,0.13033435287475587,9.707440268707275
249832477633917,-0.0020868529099971056,-0.001936917076818645,0.000901480030734092,0.030825346374511717,0.1375169578552246,9.7039986038208
249832487606917,-0.001407214323990047,-0.0022082931827753782,0.001853293739259243,0.04234744186401367,0.13482348098754882,9.698910925292969
249832497578917,-0.004283161833882332,-0.0022690133191645145,0.0012594088912010193,0.03202244720458984,0.12554594955444334,9.719560914611815
249832507551917,-0.004786499310284853,-0.001457814360037446,0.0014109427575021982,0.040102877807617184,0.14350246200561523,9.694721072387695
249832517523917,-0.0022980417124927044,-0.0018554243724793196,7.98948312876746e-05,0.03800795135498047,0.12659341278076172,9.702502227783203
249832527496667,-0.002895122393965721,-0.00276196445338428,0.0009406284661963582,0.03396773605346679,0.13078326568603516,9.69771382446289
249832537468667,-0.0027305390685796738,-0.0013994910987094045,0.0010697918478399515,0.03127425918579101,0.12734160079956053,9.699210200500488
249832547440667,-0.0014452975010499358,-0.002585396869108081,0.0007832356495782733,0.035464112091064454,0.1327285545349121,9.689483756256102
249832557413667,-0.001966211711987853,-0.0016876452136784792,0.000847950461320579,0.042646717071533204,0.13721768264770506,9.689184481048583
249832567385667,-0.0021608888637274504,-0.0017805894603952765,0.0011680624447762966,0.029927520751953124,0.15098434219360352,9.697264911651612
249832577358667,-0.002523611532524228,-0.002894856035709381,0.0006980145117267966,0.03980360260009765,0.14380173721313474,9.685742816162108
249832587330667,-0.002493251347914338,0.0003664509567897767,0.0012144014472141862,0.04713584518432617,0.13631985702514648,9.690381581878661
249832597303667,-0.0026320021133869886,-0.0019598202779889107,7.5101139373146e-05,0.03965396499633789,0.13676876983642577,9.692476508331298
249832607275667,-0.0031220237724483013,-0.002814695006236434,0.0006934871198609471,0.0474351203918457,0.12808978881835936,9.686640641784667
249832617248667,-0.003777693957090378,-0.002109489869326353,0.0007771103992126882,0.04144961624145507,0.1396118843078613,9.694421797180174
249832627220667,-0.003151052165776491,-0.00039468047907575965,0.0015821839915588498,0.031124621582031248,0.13631985702514648,9.682600426483154
249832637193667,-0.00336144189350307,-0.0028447885997593403,0.0013739247806370258,0.02528875503540039,0.12988544006347655,9.692027595520019
249832647165667,-0.004195810295641422,-0.0015683355741202831,0.001928128651343286,0.02858078231811523,0.14185644836425781,9.70459715423584
249832657137667,-0.0022799321450293064,-0.003239735495299101,-0.0005219795857556164,0.04519055633544922,0.1236006607055664,9.70444751663208
249832667110667,-0.0016799219883978367,-0.0018998990999534726,0.0005214469274505973,0.03067570877075195,0.11671733093261719,9.702951140594482
249832677082667,-0.0019060244085267186,-0.004334294702857733,0.00041092574247159064,0.024690204620361325,0.1466448516845703,9.69786346206665
249832687055667,-0.0036794233601540327,-0.0022836606949567795,0.0012532835826277733,0.041000703430175776,0.12764087600708007,9.688735568237304
249832697027667,-0.001829591696150601,-0.0034226945135742426,-0.00023675501870457083,0.049230771636962885,0.14185644836425781,9.694272159576416
249832707000667,-0.0018959043081849813,-0.0022591594606637955,0.001333178486675024,0.03920505218505859,0.1336263801574707,9.687688105010986
249832716972667,-0.0014916365034878254,-0.0026144252624362707,-8.76179983606562e-05,0.034715924072265626,0.1253963119506836,9.701903677368163
249832726945667,-0.0014791196445003152,-0.002484462922438979,0.0017558221006765962,0.040701428222656245,0.13691840744018555,9.699958388519287
249832736917667,-0.003451190423220396,-0.0020242687314748764,0.0016732640797272325,0.03037643356323242,0.1258452247619629,9.698162737274169
249832746889667,-0.002936934120953083,-0.0019571571610867977,0.0018940401496365666,0.04189852905273437,0.1301847152709961,9.698910925292969
249832756862667,-0.0023060310631990433,-0.00304692261852324,0.0005233111442066729,0.050128597259521485,0.12719196319580078,9.688137017822266
249832766834667,-0.002049036091193557,-0.0015166702214628458,0.002400573343038559,0.04025251541137695,0.13572130661010742,9.686042091369629
249832776807667,-0.002270078519359231,-0.0021664814557880163,0.0010335728293284774,0.04713584518432617,0.13781623306274413,9.689633393859863
249832786779667,-0.0031467911321669817,-0.0013547500129789114,0.0007091998122632504,0.04608838195800781,0.1222539222717285,9.69696563644409
249832796752667,-0.0010125337867066264,-0.0017369136912748218,0.0009587379754520953,0.04803367080688476,0.12808978881835936,9.692775783538817
249832806724667,-0.0032740901224315166,-0.0007068029372021556,-0.0008881642133928835,0.041000703430175776,0.12853870162963865,9.70369932861328
249832816697667,-0.001044758129864931,-0.0017915084026753902,0.0018306568963453174,0.053121349334716794,0.13063362808227538,9.690381581878661
249832826669667,-0.0023374564480036497,-0.0010777813149616122,0.0014953649369999766,0.04219780426025391,0.13676876983642577,9.687837742614745
249832836642667,-0.0016431703697890043,-0.0015286544803529978,0.0014658038271591067,0.035464112091064454,0.12315174789428711,9.701754039764404
249832846614667,-0.0014543522847816348,-0.0019832560792565346,0.00035926041891798377,0.04474164352416992,0.13691840744018555,9.694122521972655
249832856586667,-0.0018703379901126027,-0.001957689644768834,0.0014152037911117077,0.046537294769287106,0.12868833923339842,9.689633393859863
249832866559667,-0.003091131104156375,-0.0024234766606241465,0.00023995080846361816,0.03950432739257812,0.13302782974243163,9.69786346206665
249832876531667,-0.0026668894570320845,-0.0034056503791362047,0.000330231967382133,0.04159925384521484,0.13287819213867186,9.701155489349365
249832886504667,-0.001645300886593759,-0.0012831110507249832,0.0017872473690658808,0.049530046844482416,0.14484920043945312,9.688735568237304
249832896476667,-0.0015877765836194158,-0.0008993495139293373,0.0013379721203818917,0.049230771636962885,0.13242927932739257,9.690531219482422
249832906449667,-0.003091397462412715,-0.0037891454994678497,0.0007366303470917046,0.0469862075805664,0.12300211029052734,9.695469260406494
249832916421667,-0.0024024376180022955,-0.0016729978378862143,0.0005044027348048985,0.03247136001586914,0.1279401512145996,9.698910925292969
249832926394667,-0.001734250457957387,-0.0022237394005060196,0.0006585997180081904,0.041000703430175776,0.13587094421386717,9.689932669067382
249832936366667,-0.0022591594606637955,-0.002037318190559745,-0.0010034791193902493,0.04967968444824218,0.13467384338378904,9.693823246765136
249832946338667,-0.001805889536626637,-0.0015534218400716782,0.0006258428329601884,0.03800795135498047,0.12554594955444334,9.693523971557617
249832956311667,-0.0025659557431936264,-0.0011709919199347496,0.000749679864384234,0.04668693237304687,0.1322796417236328,9.700556938934326
249832966283667,-0.002281796419993043,-0.0009725864510983229,0.0016450346447527409,0.049829322052001954,0.14589666366577148,9.70444751663208
249832976256667,-0.0035087147261947393,-0.0013065468519926071,0.0010365023044869304,0.03516483688354492,0.13766659545898435,9.69786346206665
249832986228667,-0.001898034941405058,-0.0017185378819704056,0.000955009541939944,0.027383681488037107,0.1361702194213867,9.693673609161376
249832996201667,-0.001981924520805478,-0.0012993563432246447,0.001210406655445695,0.028880057525634766,0.1370680450439453,9.701903677368163
249833006173667,-0.002889796160161495,-0.0028735508676618338,0.00035686357296071947,0.027832594299316404,0.12045827102661132,9.704896429443359
249833016146667,-0.004175037611275911,-0.0016407734947279096,0.0006503439508378506,0.02902969512939453,0.1279401512145996,9.696367086029053
249833026118667,-0.0011861718958243728,-0.0008993495139293373,0.002264485927298665,0.026785131072998045,0.13542203140258788,9.687688105010986
249833036091667,-0.0029137644451111555,-0.002942260354757309,0.0010077401529997587,0.04129997863769531,0.1336263801574707,9.703400053405762
249833046063667,-0.002445580903440714,-0.0029883331153541803,3.5952674807049334e-05,0.04249707946777344,0.13766659545898435,9.702951140594482
249833056035667,-0.0019148128340020776,-0.001603222917765379,0.0014154701493680477,0.037110125732421874,0.13213000411987305,9.70354969100952
249833066008667,-0.0011206581257283688,-0.0018471685471013188,0.0037611823063343763,0.047884033203124995,0.12764087600708007,9.698910925292969
249833075980667,-0.002549976808950305,-0.0006434197421185672,0.0015968313673511147,0.048183308410644526,0.1370680450439453,9.70369932861328
249833085953667,-0.002326271263882518,-0.0031561122741550207,0.0006202502408996224,0.040402153015136714,0.13422493057250975,9.680655137634277
249833095925667,-0.0023286680225282907,-0.00213665422052145,0.0012274509062990546,0.04249707946777344,0.13138181610107422,9.695768535614013
249833105898667,-0.0033185649663209915,-0.0028842033352702856,0.0011819108622148633,0.04548983154296875,0.14170681076049804,9.699359838104247
249833115870667,-0.0033164345659315586,-0.0022628880105912685,5.858954318682663e-05,0.04025251541137695,0.13646949462890623,9.689633393859863
249833125843667,-0.001169127761386335,-0.002826146548613906,0.001205080421641469,0.03531447448730469,0.14454992523193358,9.689184481048583
249833135815667,-0.002597114769741893,-0.0026618295814841986,0.00307595101185143,0.049530046844482416,0.1279401512145996,9.694122521972655
249833145788667,-0.0017206683987751603,-0.0005344964447431266,-8.255799002654385e-06,0.05297171173095703,0.13946224670410157,9.703400053405762
249833155760667,-0.0008961536805145442,-0.002633333671838045,0.0006199838826432824,0.040701428222656245,0.14245499877929688,9.705794255065918
249833165732667,-0.002919090911746025,-0.0032141690608114004,0.0007121292874217033,0.03920505218505859,0.12479776153564452,9.69696563644409
249833175705667,-0.003329217666760087,-0.0014202637830749154,0.0010223875287920237,0.04055179061889648,0.12315174789428711,9.695469260406494
249833185677667,-0.0014740596525371075,-0.0026557042729109526,8.202536264434457e-05,0.03336918563842773,0.14050970993041992,9.706392805480956
249833195650667,-0.002555303042754531,-0.0021552962716668844,-0.0005315669695846736,0.033818098449707026,0.14155717315673827,9.69786346206665
249833205622667,-0.004793423693627119,-0.0010436928132548928,0.0007350324303843081,0.03755903854370117,0.1331774673461914,9.695768535614013
249833215595667,-0.0027300063520669937,-0.0031254857312887907,0.002922286745160818,0.03247136001586914,0.14006079711914063,9.702502227783203
249833225567667,-0.0012098740553483367,-0.0019449065439403057,0.0012953615514561534,0.040701428222656245,0.13467384338378904,9.694571434783935
249833235540667,-0.0020628846250474453,-0.00105328019708395,0.0024594292044639587,0.04668693237304687,0.13856442108154296,9.697264911651612
249833245512667,-0.0012594088912010193,-0.0024652881547808647,0.0013137373607605696,0.04534019393920898,0.12779051361083985,9.698611650085448
249833255485667,-0.0015877765836194158,-0.0026370619889348745,-0.00033582461765035987,0.03681085052490234,0.12823942642211913,9.693972884368895
249833265457667,-0.0014016216155141592,-0.0021140172611922026,0.0011587414192035794,0.030974983978271482,0.12285247268676758,9.69696563644409
249833275429667,-0.0012474246323108673,-0.0028706213925033808,0.0012207929976284504,0.034715924072265626,0.12629413757324218,9.695319622802733
249833285402667,-0.0021374530624598265,-0.0028778119012713432,0.0004370247188489884,0.028880057525634766,0.1352723937988281,9.693523971557617
249833295374667,-0.0022056300658732653,-0.0036242958158254623,0.00010599380766507238,0.04878185882568359,0.12479776153564452,9.690980132293701
249833305347667,-0.0024080302100628614,-0.0030863373540341854,0.000844754686113447,0.0526724365234375,0.13138181610107422,9.678260935974121
249833315319667,-0.0025561018846929073,-0.0012721919920295477,0.0009361011325381696,0.03995324020385742,0.1441010124206543,9.700108026123047
249833325292667,-0.0016548882704228163,-0.0023558323737233877,0.0005318332696333528,0.049530046844482416,0.13108254089355467,9.683947164916992
249833335264667,-0.003930293023586273,-0.0030370689928531647,0.0005957491230219603,0.040102877807617184,0.13422493057250975,9.699509475708007
249833345237667,-0.003293264890089631,-0.002802977105602622,0.0017121462151408195,0.042945992279052735,0.12285247268676758,9.693823246765136
249833355209667,-0.0019859191961586475,-0.001704689348116517,0.00046605319948866963,0.035763387298583985,0.1236006607055664,9.690531219482422
249833365182667,-0.00324852392077446,-0.002273007994517684,0.0013214604696258903,0.02798223190307617,0.12449848632812499,9.70369932861328
249833375154667,-0.0013347762869670987,-0.003472229465842247,0.0003427488263696432,0.0330699104309082,0.12150573425292968,9.699210200500488
249833385126667,-0.0030272151343524456,-0.002826679265126586,0.001243962557055056,0.03666121292114258,0.13587094421386717,9.694870709991454
249833395099667,-0.0022679478861391544,-0.0025270734913647175,0.0012231898726895452,0.03980360260009765,0.1331774673461914,9.698761287689209
249833405071667,-0.001990979304537177,-0.0018293253378942609,0.0010167949367314577,0.05491700057983398,0.1288379768371582,9.705644617462157
249833415044667,-0.0047090016305446625,-0.0017867147689685225,0.0015161376213654876,0.05117606048583984,0.13721768264770506,9.700108026123047
249833425016667,-0.002755306428298354,-0.0016857809387147427,0.001988049829378724,0.049230771636962885,0.13078326568603516,9.692626145935058
249833434989667,-0.003073021536692977,-0.0016277240356430411,0.0009800433181226254,0.049230771636962885,0.12808978881835936,9.701305126953125
249833444961667,-0.0035119105596095324,-0.0019481023773550987,0.000511593243572861,0.04399345550537109,0.13811550827026367,9.707739543914794
249833454934667,-0.0018048242200165987,-0.0032498554792255163,0.0003683151735458523,0.041000703430175776,0.12434884872436523,9.700856214141846
249833464906667,-0.003288471372798085,-0.002782470779493451,0.0010215885704383254,0.03441664886474609,0.12120645904541015,9.693374333953857
249833474879667,-0.002710032742470503,-0.0031438616570085287,-0.000300404557492584,0.04414309310913086,0.12868833923339842,9.688885205841064
249833484851667,-0.001020523370243609,-0.0005222458858042955,0.0011022823164239526,0.04878185882568359,0.14499883804321287,9.69696563644409
249833494824667,-0.002639725338667631,-0.0027377295773476362,2.9827404432580806e-05,0.05237316131591797,0.13392565536499024,9.696367086029053
249833504796667,-0.002360093407332897,-0.0008562062866985798,0.0011688614031299949,0.04638765716552734,0.12464812393188476,9.696815998840332
249833514768667,-0.0018572885310277343,-0.0031302794814109802,0.0015089471125975251,0.04773439559936523,0.13093290328979493,9.688436293029785
249833524741667,-0.0032895365729928017,-0.0017768610268831253,0.003382214577868581,0.04444236831665039,0.13856442108154296,9.679906949615479
249833534714250,-0.002552639925852418,-0.0018391790799796581,0.0008439557277597487,0.047584757995605464,0.13856442108154296,9.681852238464355
249833544687250,-0.001606152392923832,-0.0027233485598117113,0.001582982949912548,0.038756139373779294,0.1349731185913086,9.705644617462157
249833554659250,-0.003038400551304221,-0.002272208919748664,-0.00014141385327093303,0.03441664886474609,0.13093290328979493,9.708338094329834
249833564632250,-0.002299905987456441,-0.0018844527658075094,0.000600809114985168,0.02902969512939453,0.12943652725219726,9.69696563644409
249833574604250,-0.0032519858796149492,-0.003165166825056076,0.002116147894412279,0.04219780426025391,0.13646949462890623,9.702352590179443
249833584577250,-0.0011669971281662583,-0.00130947632715106,0.0010317085543647408,0.02798223190307617,0.12389993591308593,9.689783031463623
249833594549250,-0.0013411679537966847,-0.0026043052785098553,0.00020240024605300277,0.029478607940673827,0.12779051361083985,9.702951140594482
249833604522250,-0.0020482372492551804,-0.0017662084428593516,0.0009086705395020545,0.04414309310913086,0.13811550827026367,9.695618898010252
249833614494250,-0.0026498453225940466,-0.0027808728627860546,0.00048709215479902923,0.0430956298828125,0.14888941574096679,9.679158761596678
249833624466250,-0.0037414750549942255,-0.002410160843282938,0.00014434332842938602,0.04548983154296875,0.13302782974243163,9.685742816162108
249833634439250,-0.001418932224623859,-0.0013539510546252131,0.00020905814017169178,0.05835866546630859,0.12509703674316405,9.695918173217773
249833644411250,-0.0012937636347487569,-0.002767024328932166,0.001279382617212832,0.042048166656494135,0.13766659545898435,9.694421797180174
249833654384250,-0.002070607617497444,-0.003640807466581464,0.0018570221727713943,0.041748891448974604,0.13422493057250975,9.693823246765136
249833664356250,-0.004581436049193144,-0.002757703186944127,0.002936934120953083,0.04414309310913086,0.1497872413635254,9.703250415802001
249833674329250,-0.0018767296569421887,-0.0017558221006765962,0.0004809668753296137,0.03681085052490234,0.1222539222717285,9.689932669067382
249833684301250,-0.0037609159480780363,-0.0031374699901789427,0.0006727144937030971,0.05102642288208008,0.13377601776123046,9.694721072387695
249833694274250,-0.005034706089645624,-0.002657035831362009,0.0009134642314165831,0.04773439559936523,0.1283890640258789,9.702651865386962
249833704246250,-0.003878894029185176,-0.003287938656285405,0.001026382320560515,0.05596446380615234,0.13078326568603516,9.701903677368163
249833714219250,-0.002700445242226124,-0.0008444883860647678,0.0009076052810996771,0.042945992279052735,0.12958616485595703,9.693224696350097
249833724191250,-0.0034727619495242834,-0.0023315974976867437,0.0010514160385355353,0.03127425918579101,0.14200608596801756,9.701155489349365
249833734164250,-0.00404507527127862,-0.0011558119440451264,0.0020785972010344267,0.03037643356323242,0.13856442108154296,9.701155489349365
249833744136250,-0.0008383630774915218,-0.001999767730012536,0.0006572681595571339,0.0383072265625,0.13587094421386717,9.692027595520019
249833754108250,-0.0028397287242114544,-0.0014141384745016694,-0.00037444045301526785,0.0383072265625,0.12868833923339842,9.698162737274169
249833764081250,-0.002499909373000264,-0.002481799805536866,-0.0006383596919476986,0.03411737365722656,0.13467384338378904,9.683049339294433
249833774053250,-0.0020301276817917824,-0.003063700394704938,0.0013451626291498542,0.038756139373779294,0.12734160079956053,9.685892453765868
249833784026250,-0.0023704797495156527,-0.0024016385432332754,0.0016935041639953852,0.037409400939941405,0.13736732025146484,9.71581997451782
249833793998250,-0.0020722055342048407,-0.0021752698812633753,0.0017728663515299559,0.04025251541137695,0.15038579177856445,9.693972884368895
249833803971250,-0.002428004052489996,-0.002153165638446808,0.0010250506456941366,0.04129997863769531,0.14050970993041992,9.689334118652344
249833813943250,-0.0014567491598427296,-0.0013997574569657445,0.0016919062472879887,0.03516483688354492,0.13482348098754882,9.69741454925537
249833823916250,-0.0030216225422918797,-0.004196343012154102,0.0005190501105971634,0.046537294769287106,0.1361702194213867,9.699359838104247
249833833888250,-0.001930525409989059,-0.004187021870166063,0.0002460760879330337,0.0383072265625,0.1279401512145996,9.702202952575684
249833843861250,-0.0020642161834985018,-0.0014679343439638615,0.0010279801208525896,0.04115034103393554,0.1236006607055664,9.704746791839598
249833853833250,-0.001359277404844761,-0.001710814656689763,-6.73779723001644e-05,0.040102877807617184,0.14200608596801756,9.692476508331298
249833863806250,-0.002466087229549885,-0.002225603675469756,0.0011411645682528615,0.0469862075805664,0.13811550827026367,9.687388829803465
249833873778250,-0.0014303837670013309,-0.002522279741242528,0.002037850907072425,0.0526724365234375,0.13467384338378904,9.696367086029053
249833883750250,-0.003460245206952095,-0.001877262257039547,-0.0009068063227459788,0.04144961624145507,0.1336263801574707,9.702053314971923
249833893723250,-0.002204830991104245,-0.0019214707426726818,0.00047164582065306604,0.03890577697753906,0.12165537185668944,9.711630121612549
249833903695250,-0.00310497940517962,-0.0005424859118647873,0.001580319833010435,0.0378583137512207,0.12868833923339842,9.69083049468994
249833913668250,-0.00207673292607069,-0.0025241440162062645,0.0009076052810996771,0.018704700469970702,0.12315174789428711,9.690531219482422
249833923640250,-0.0031079088803380728,-0.0024628913961350918,0.001576857641339302,0.035464112091064454,0.1304839904785156,9.694870709991454
249833933613250,-0.0028812738601118326,-0.0019086875254288316,0.001845038030296564,0.047285482788085934,0.1393126091003418,9.702053314971923
249833943585250,-0.0034290861804038286,-0.0013246563030406833,0.00088949577184394,0.02902969512939453,0.13811550827026367,9.692177233123779
249833953558250,-0.0031305458396673203,-0.0020061591640114784,0.00043010051012970507,0.05192424850463867,0.13587094421386717,9.699060562896728
249833963530250,-0.0027079021092504263,-0.002496713539585471,0.001088433898985386,0.04563946914672851,0.13257891693115234,9.689783031463623
249833973503250,-0.00026312030968256295,-0.00239205127581954,0.0008876316132955253,0.04548983154296875,0.13257891693115234,9.705494979858399
249833983475250,-0.0035113778430968523,-0.00140987744089216,0.0016713999211788177,0.03920505218505859,0.13781623306274413,9.701604402160644
249833993448250,-0.002793389605358243,-0.003932423423975706,0.0009917612187564373,0.03366846084594726,0.13781623306274413,9.688885205841064
249834003420250,-0.004067179746925831,-0.002020274056121707,-0.000529436394572258,0.02798223190307617,0.12449848632812499,9.690531219482422
249834013392250,-0.0011086739832535386,-0.0027593011036515236,0.0012093414552509785,0.050427872467041016,0.13392565536499024,9.694721072387695
249834023365250,-0.00012729909212794155,-0.0014199974248185754,0.0018221348291262984,0.037708676147460936,0.1423053611755371,9.708637369537353
249834033337250,-0.001392300589941442,-0.002132659312337637,-0.00039254993316717446,0.053121349334716794,0.12000935821533203,9.701454764556884
249834043310250,-0.0027411917690187693,-0.0009246495319530368,0.0012274509062990546,0.05057751007080078,0.12958616485595703,9.685443540954589
249834053282250,-0.0019377160351723433,-0.0020809939596801996,0.0023060310631990433,0.05027823486328125,0.13946224670410157,9.687239192199707
249834063255250,-0.0022748722694814205,-0.003055444685742259,0.00021758026559837162,0.033818098449707026,0.13063362808227538,9.702053314971923
249834073227250,-0.0030394657514989376,-0.0028727517928928137,0.0007068029372021556,0.04863222122192382,0.1388636962890625,9.69187795791626
249834083200250,-0.0018128136871382594,-0.0023286680225282907,0.0019518306944519281,0.03277063522338867,0.12599486236572266,9.692775783538817
249834093172250,-0.002558765234425664,-0.002074069809168577,0.0020540961995720863,0.0383072265625,0.12524667434692383,9.69157868270874
249834103145250,-0.0020785972010344267,-0.002320412313565612,0.0018703379901126027,0.03202244720458984,0.12988544006347655,9.695618898010252
249834113117250,-0.002070607617497444,-0.0013518205378204584,0.0003731088654603809,0.02977788314819336,0.1261444999694824,9.687987380218505
249834123090250,-0.0012503541074693203,-0.001948634977452457,3.462109361862531e-06,0.028880057525634766,0.12599486236572266,9.698910925292969
249834133062250,-0.000922519015148282,-0.004041080828756094,0.0017241304740309715,0.04159925384521484,0.13901333389282225,9.701305126953125
249834143034250,-0.0034677020739763975,-0.0008026767172850668,0.0023552996572107077,0.04025251541137695,0.1301847152709961,9.6917283203125
249834153007250,-0.004048004746437073,-0.003620833856984973,0.0006668555433861911,0.033818098449707026,0.1240495735168457,9.695469260406494
249834162979250,-0.0041345576755702496,-0.0021960425656288862,0.0012319782981649041,0.04115034103393554,0.13602058181762694,9.694272159576416
249834172952250,-0.0018434401135891676,-0.0036669063847512007,0.0015640745405107737,0.05386953735351562,0.13736732025146484,9.686790279388427
249834182924250,-0.0030397321097552776,-0.003051982494071126,0.0016889767721295357,0.042945992279052735,0.1345242057800293,9.693075058746338
249834192897250,-0.002549177734181285,-0.0034463966730982065,0.0016048208344727755,0.05027823486328125,0.13467384338378904,9.692925421142577
249834202869250,-0.002238120650872588,-0.0020530307665467262,0.00105354655534029,0.0430956298828125,0.12898761444091797,9.681702600860595
249834212842250,-0.0015267902053892612,-0.002727875951677561,0.001466869143769145,0.03755903854370117,0.13003507766723632,9.692925421142577
249834222814250,-0.0025185514241456985,-0.0005560680292546749,0.0014136058744043112,0.04055179061889648,0.13332710494995118,9.694272159576416
249834232787250,-0.0023792681749910116,-0.0015102786710485816,0.00227806787006557,0.034715924072265626,0.13407529296874998,9.679158761596678
249834242759250,-0.0027683558873832226,-0.0028698223177343607,0.0018197379540652037,0.042945992279052735,0.13287819213867186,9.700407301330566
249834252732250,-0.001969940261915326,-0.0025995115283876657,0.0016439693281427026,0.04339490509033203,0.1375169578552246,9.698162737274169
249834262704250,-0.002287122653797269,-0.002924683503806591,-0.00018562232435215265,0.045938744354248044,0.12898761444091797,9.69127940750122
249834272677250,-0.002755306428298354,-0.0035960664972662926,0.001998702296987176,0.03755903854370117,0.14484920043945312,9.690082306671142
249834282649250,-0.0017249294323846698,-0.0014711301773786545,-0.00034461304312571883,0.04384381790161133,0.1331774673461914,9.69741454925537
249834292621250,-0.001377653214149177,-0.003129480639472604,-0.0005387574783526361,0.04474164352416992,0.14305354919433594,9.695918173217773
249834302594250,-0.0030897995457053185,-0.0018751317402347922,-0.00012357067316770554,0.042048166656494135,0.14245499877929688,9.690381581878661
249834312566250,-0.003900465788319707,-0.0021521004382520914,0.0021433120127767324,0.03965396499633789,0.13631985702514648,9.706692080688477
249834322539250,-0.0028660940006375313,-0.0019494339358061552,0.0008751147543080151,0.0430956298828125,0.14380173721313474,9.69831237487793
249834332511250,-0.0025427863001823425,-0.0024048343766480684,0.002192846732214093,0.03411737365722656,0.13646949462890623,9.692326870727538
249834342484250,-0.0027438548859208822,-0.004192880820482969,-1.9707391402334906e-05,0.05087678527832031,0.1349731185913086,9.70444751663208
249834352456250,-0.002264219569042325,-0.0027539748698472977,0.0009504822082817554,0.04249707946777344,0.12913725204467771,9.712378309631347
249834362429250,-0.000176301269675605,-0.0023406522814184427,0.0017251957906410098,0.04159925384521484,0.1322796417236328,9.7039986038208
249834372401250,-0.0033712955191731453,-0.0029611687641590834,-0.0007518103811889887,0.03591302490234375,0.13287819213867186,9.69741454925537
249834382374250,-0.0027590349782258272,-0.002403769176453352,0.0012815131340175867,0.033518823242187495,0.12285247268676758,9.690980132293701
249834392346250,-0.0015185344964265823,0.0005147890187799931,0.0006482133758254349,0.03441664886474609,0.13347674255371092,9.694421797180174
249834402319250,-0.0030477214604616165,-0.0019568908028304577,-0.00025007082149386406,0.04115034103393554,0.14200608596801756,9.693523971557617
249834412291250,-0.003187004942446947,-0.00401684595271945,0.0007099987124092877,0.04548983154296875,0.14559738845825196,9.683348614501952
249834422264250,-0.0013041499769315124,-0.0016554208705201745,0.0014881744282320142,0.045938744354248044,0.1331774673461914,9.686042091369629
249834432236250,-0.0023616913240402937,-0.0019044264918193221,0.00044847631943412125,0.047884033203124995,0.12823942642211913,9.686790279388427
249834442208250,-0.0029933929909020662,-0.0010849718237295747,0.000526773277670145,0.030825346374511717,0.13138181610107422,9.688137017822266
249834452181250,-0.0029345371294766665,-0.0016024239594116807,0.0005347627447918057,0.03501519927978516,0.13422493057250975,9.699659113311768
249834462153250,-0.0020732709672302008,-0.001967010786756873,0.0006809702608734369,0.04249707946777344,0.1292868896484375,9.69696563644409
249834472126250,-0.0024487765040248632,-0.002168878447264433,0.0010732539230957627,0.03845686416625976,0.13108254089355467,9.690980132293701
249834482098250,-0.004274107050150633,-0.001984321279451251,0.0011733887949958444,0.020051438903808592,0.1292868896484375,9.696367086029053
249834492071250,-0.0018423747969791293,-0.003486876841634512,0.0011550129856914282,0.03336918563842773,0.13033435287475587,9.705794255065918
249834502043250,-0.002606435678899288,-0.003055711043998599,0.0017172062071040273,0.030825346374511717,0.12808978881835936,9.700556938934326
249834512016250,-0.0029731530230492353,-0.0028003137558698654,1.757686368364375e-05,0.04967968444824218,0.12988544006347655,9.693075058746338
249834521988250,-0.003567570587620139,-0.002126534003764391,0.0016785904299467802,0.04848258361816406,0.1258452247619629,9.682450788879393
249834531960750,-0.0017757958266884089,-0.0013872405979782343,0.00115421402733773,0.027533319091796873,0.1336263801574707,9.69741454925537
249834541932750,-0.0028035095892846584,-0.0035244273021817207,0.0016391756944358349,0.04025251541137695,0.1318307289123535,9.693673609161376
249834551905750,-0.002043443499132991,-0.0012594088912010193,-0.0003424825263209641,0.04249707946777344,0.1222539222717285,9.686191728973387
249834561877750,-0.003296727081760764,-0.001916144392453134,0.0014335796004161239,0.0474351203918457,0.1274912384033203,9.700257663726806
249834571850750,-0.002951581496745348,-0.002367816399782896,0.00148151651956141,0.042646717071533204,0.12898761444091797,9.687089554595946
249834581822750,-0.0027449200861155987,-0.002067944500595331,0.0008492820779792964,0.039055414581298825,0.12285247268676758,9.692326870727538
249834591794750,-0.0034413367975503206,-0.0017699368763715029,0.000395745737478137,0.03965396499633789,0.12569558715820311,9.688735568237304
249834601767750,-0.002424009144306183,-0.0016325177857652307,0.00162426196038723,0.039055414581298825,0.1375169578552246,9.706542443084716
249834611739750,-0.002406965009868145,-0.0012873720843344927,-0.0006223807577043772,0.040701428222656245,0.14589666366577148,9.70504606704712
249834621712750,-0.002528138691559434,-0.00177899154368788,-0.0007539408979937434,0.044292730712890624,0.12674305038452147,9.685742816162108
249834631684750,-0.0014138722326606512,-0.002070873975753784,-0.00011664645717246458,0.0430956298828125,0.13332710494995118,9.688436293029785
249834641657750,-0.0022242721170186996,-0.0011169298086315393,-0.0008013451588340104,0.02633621826171875,0.13512275619506836,9.681253688049315
249834651629750,-0.004268514458090067,-0.0025100293569266796,0.001184307737275958,0.03037643356323242,0.14036007232666015,9.699060562896728
249834661602750,-0.0023276028223335743,-0.0022184131667017937,0.0009864348685368896,0.04713584518432617,0.12973580245971678,9.705195704650878
249834671574750,-0.002246909076347947,-0.002004827605560422,0.0019944412633776665,0.05431845016479492,0.13467384338378904,9.699659113311768
249834681547750,-0.0011906992876902223,-0.0022072279825806618,0.0030061763245612383,0.03965396499633789,0.13257891693115234,9.695768535614013
249834691519750,-0.0019739349372684956,-0.0017728663515299559,0.003447728231549263,0.050128597259521485,0.12419921112060546,9.700856214141846
249834701492750,-0.0031726236920803785,-0.000963797967415303,0.0003270361921750009,0.047884033203124995,0.13646949462890623,9.688137017822266
249834711464750,-0.0026900589000433683,-0.0020695424173027277,0.0008189220097847283,0.03232172241210937,0.12644377517700195,9.696217448425292
249834721437750,-0.004057059530168772,-0.003093261504545808,0.0016951019642874599,0.05461772537231445,0.13691840744018555,9.681852238464355
249834731409750,-0.0032176312524825335,-0.001847434788942337,0.0019683423452079296,0.03845686416625976,0.12898761444091797,9.676465284729003
249834741382750,-0.002597114769741893,-0.002086320426315069,0.00014434332842938602,0.041000703430175776,0.1283890640258789,9.692925421142577
249834751354750,-0.0019795275293290615,-0.0014436995843425393,-0.0009893643436953425,0.04399345550537109,0.13242927932739257,9.69756418685913
249834761326750,-0.001955026527866721,-0.0009235842735506594,0.000636495475191623,0.040402153015136714,0.1304839904785156,9.696367086029053
249834771299750,-0.0031909996178001165,-0.00166607357095927,0.0005749764968641102,0.03127425918579101,0.1304839904785156,9.683498252105712
249834781271750,-0.0010125337867066264,-0.0015728629659861326,0.0023148194886744022,0.035763387298583985,0.14036007232666015,9.695768535614013
249834791244750,-0.0029047098942101,-0.0028045750223100185,0.00046392265358008444,0.04085106582641601,0.14290391159057617,9.693523971557617
249834801216750,-0.002043443499132991,-0.0015853798249736428,0.0007131945458240807,0.04219780426025391,0.1258452247619629,9.702651865386962
249834811189750,-0.001228782464750111,-0.002413090318441391,0.0017528926255181432,0.04115034103393554,0.13093290328979493,9.70459715423584
249834821161750,-0.001439971150830388,-0.003379551460966468,0.0008157262345775962,0.027832594299316404,0.12719196319580078,9.701754039764404
249834831134750,-0.003233343828469515,-0.0031899344176054,-0.0003384877636563033,0.042646717071533204,0.1304839904785156,9.695618898010252
249834841106750,-0.0017188041238114238,-0.0007046724203974009,0.0003123887872789055,0.03755903854370117,0.11731588134765625,9.697115274047851
249834851079750,-0.0036277580074965954,-0.0019390475936233997,0.0015299860388040543,0.041000703430175776,0.1301847152709961,9.699359838104247
249834861051750,-0.0023289343807846308,-0.0022056300658732653,0.000538491178303957,0.028880057525634766,0.12479776153564452,9.70414824142456
249834871024750,-0.0023491743486374617,-0.002186188939958811,0.00028096348978579044,0.05087678527832031,0.1327285545349121,9.690980132293701
249834880996750,-0.003919906914234161,-0.0018485001055523753,0.0013667342718690634,0.0378583137512207,0.14290391159057617,9.700257663726806
249834890969750,-0.001933721243403852,-0.0020698087755590677,0.0025369273498654366,0.041000703430175776,0.13213000411987305,9.688735568237304
249834900941750,-0.0018695390317589045,-0.004595817066729069,0.0013560815714299679,0.04638765716552734,0.1131260284423828,9.688885205841064
249834910914750,-0.002540389308705926,-0.0034120420459657907,0.0012149340473115444,0.049230771636962885,0.14036007232666015,9.702951140594482
249834920886750,-0.0013166668359190226,-0.0019467707024887204,0.001973402453586459,0.04504091873168945,0.1361702194213867,9.686790279388427
249834930858750,-0.002031725598499179,-0.0010032127611339092,0.00028762139845639467,0.05027823486328125,0.12689268798828124,9.688436293029785
249834940831750,-0.0020064255222678185,-0.001939846551977098,0.0021105550695210695,0.04085106582641601,0.1292868896484375,9.692925421142577
249834950803750,-0.0017188041238114238,-0.003837881376966834,0.0004929511342197657,0.038756139373779294,0.11896189498901366,9.695169985198975
249834960776750,-0.0009403621661476791,-0.00041492050513625145,0.0010932276491075754,0.0469862075805664,0.13168109130859373,9.68514426574707
249834970748750,-0.002094576135277748,-0.002195776207372546,0.0013941648649051785,0.04144961624145507,0.1331774673461914,9.677512747955321
249834980721750,-0.0036823528353124857,-0.0015134743880480528,0.0004468784318305552,0.04638765716552734,0.13781623306274413,9.701155489349365
249834990693750,-0.0023180153220891953,-0.002329467097297311,0.001377919572405517,0.04219780426025391,0.1304839904785156,9.695020347595214
249835000666750,-0.003001648932695389,-0.0013432984706014395,0.0008777778712101281,0.03890577697753906,0.12823942642211913,9.70369932861328
249835010638750,-0.0031997880432754755,-0.002829076023772359,0.0011805793037638068,0.04608838195800781,0.13512275619506836,9.700856214141846
249835020611750,-0.0015883093001320958,-0.001490571303293109,0.0009731190511956811,0.028131869506835935,0.1361702194213867,9.694870709991454
249835030583750,-0.0016410398529842496,-0.0025278725661337376,0.0004623247659765184,0.03800795135498047,0.12629413757324218,9.68514426574707
249835040556750,-0.0008945558220148087,-0.0025648903101682663,-0.00022184131375979632,0.04279635467529297,0.13991115951538086,9.680505500030517
249835050528750,-0.0017986990278586745,-0.0018232000293210149,0.0015390408225357533,0.049530046844482416,0.13766659545898435,9.686491004180908
249835060501750,-0.003486876841634512,-0.0018943065078929067,0.0010154632618650794,0.041000703430175776,0.1388636962890625,9.695918173217773
249835070473750,-0.0020932445768266916,-0.0032176312524825335,0.0015776565996930003,0.03411737365722656,0.14155717315673827,9.67900912399292
249835080446750,-0.002549976808950305,-0.0032447953708469868,0.0014564828015863895,0.04803367080688476,0.13826514587402344,9.696815998840332
249835090418750,-0.0016341155860573053,-0.003430151380598545,-0.00033875409280881286,0.03561374969482422,0.1388636962890625,9.70459715423584
249835100391750,-0.0026226809713989496,-0.002148372121155262,0.0006982808117754757,0.04144961624145507,0.13287819213867186,9.681552963256836
249835110363750,-0.0028908613603562117,-0.0019923108629882336,-0.0002426139690214768,0.038756139373779294,0.13422493057250975,9.696367086029053
249835120336750,-0.0027092336677014828,-0.0019174759509041905,0.00044474788592197,0.03441664886474609,0.1375169578552246,9.698611650085448
249835130308750,-0.0013038836186751723,-0.0020389161072671413,-0.00044528054422698915,0.041748891448974604,0.12434884872436523,9.690231944274903
249835140280750,-0.0037910097744315863,-0.0008929579053074121,-8.974852971732616e-05,0.050427872467041016,0.11911153259277343,9.67885948638916
249835150253750,-0.003665574826300144,-0.0013265205780044198,0.0006833671359345317,0.04908113403320312,0.13512275619506836,9.680056587219237
249835160225750,-0.0035920715890824795,-0.0013286510948091745,-0.0009206547983922064,0.04863222122192382,0.131531453704834,9.69142904510498
249835170198750,-0.003623496973887086,-0.002695119008421898,0.0009318400407209992,0.045938744354248044,0.1375169578552246,9.692476508331298
249835180170750,-0.0022687469609081745,-0.002127865795046091,-0.0002508697798475623,0.04908113403320312,0.13856442108154296,9.700108026123047
249835190143750,-0.003582750679925084,-0.0019052254501730204,0.00047351003740914166,0.041000703430175776,0.13377601776123046,9.701454764556884
249835200115750,-0.0024522386956959963,-0.0031318773981183767,0.001041562296450138,0.02483984222412109,0.1283890640258789,9.695020347595214
249835210088750,-0.0031166973058134317,-0.0017803232185542583,0.0007129282457754016,0.03336918563842773,0.13287819213867186,9.701604402160644
249835220060750,-0.0021638183388859034,-0.0021694109309464693,0.0002567287301644683,0.03800795135498047,0.13856442108154296,9.696067810821532
249835230033750,-0.0026341325137764215,-0.002671150490641594,0.0012769857421517372,0.04159925384521484,0.13257891693115234,9.693972884368895
249835240005750,-0.00239205127581954,-0.002567553659901023,8.335694292327389e-05,0.04444236831665039,0.13407529296874998,9.671227968597412
249835249978750,-0.0017805894603952765,-0.001689509372226894,0.0011108045000582933,0.040102877807617184,0.13302782974243163,9.700556938934326
249835259950750,-0.0020546286832541227,-0.0018631474813446403,0.0015675366157665849,0.03441664886474609,0.12090718383789062,9.695768535614013
249835269923750,-0.0009294432238675654,-0.0022801985032856464,0.0008756473544053733,0.050727147674560547,0.13512275619506836,9.687987380218505
249835279895750,-0.0030770162120461464,-0.0025124261155724525,0.001979261403903365,0.042646717071533204,0.12853870162963865,9.683198976898193
249835289868750,-0.0014319816837087274,-0.002927879337221384,0.0014908375451341271,0.0330699104309082,0.1258452247619629,9.687837742614745
249835299840750,-0.00282055395655334,-0.0031523837242275476,0.0030916635878384113,0.04384381790161133,0.13467384338378904,9.693075058746338
249835309813750,-0.0025393241085112095,-0.0025483788922429085,0.001490304945036769,0.04578910675048828,0.13512275619506836,9.693374333953857
249835319785750,-0.001648496720008552,-0.000261788722127676,0.001300155185163021,0.03277063522338867,0.13168109130859373,9.682750064086914
249835329757750,-0.0020658141002058983,-0.0015358449891209602,0.00033902039285749197,0.037110125732421874,0.12853870162963865,9.69112976989746
249835339730750,-0.0016548882704228163,-0.00247594085521996,0.00048655952559784055,0.032920272827148434,0.13811550827026367,9.679757312011718
249835349702750,-0.0015781891997903585,-0.002916427794843912,0.0012503541074693203,0.04534019393920898,0.13287819213867186,9.69142904510498
249835359675750,-0.0018429075134918094,-0.001008805469609797,-0.000222373942960985,0.044891281127929686,0.1336263801574707,9.692177233123779
249835369647750,-0.0030772825703024864,-0.0027411917690187693,0.0005542038124985993,0.047884033203124995,0.131531453704834,9.690980132293701
249835379620750,-0.003605387406423688,-0.0015640745405107737,0.00023675501870457083,0.033219548034667964,0.14155717315673827,9.700856214141846
249835389592750,-0.0017845842521637678,-0.001755023142322898,1.4114753867033869e-05,0.028431144714355466,0.12719196319580078,9.70459715423584
249835399565750,-0.0023723437916487455,-0.002133724745362997,0.001793905277736485,0.03800795135498047,0.12644377517700195,9.696367086029053
249835409537750,-0.002686596941202879,-0.002436792477965355,0.0026346652302891016,0.0330699104309082,0.13482348098754882,9.69696563644409
249835419510750,-0.003689276985824108,-0.002924683503806591,0.0005062668933533132,0.02633621826171875,0.12988544006347655,9.698910925292969
249835429482750,-0.0025326660834252834,-0.0021936458069831133,0.0003203782835043967,0.04219780426025391,0.13213000411987305,9.69801309967041
249835439455750,-0.0014389059506356716,-0.002722017001360655,0.00013741910515818745,0.03920505218505859,0.12973580245971678,9.681104050445557
249835449427750,-0.0034884747583419085,-0.0015552861150354147,0.00017204020696226507,0.03815758895874023,0.12719196319580078,9.701754039764404
249835459400750,-0.00424214918166399,-0.0022514364682137966,0.0003531351685523987,0.03651157531738281,0.14350246200561523,9.69142904510498
249835469372750,-0.0041281660087406635,-0.0017875137273222208,-0.00034594463068060577,0.04369418029785156,0.12779051361083985,9.692476508331298
249835479345750,-0.003044259501621127,-0.0020277309231460094,0.002290584845468402,0.04504091873168945,0.1279401512145996,9.69741454925537
249835489317750,-0.002365419641137123,-0.0014788532862439752,-3.488740912871435e-05,0.03681085052490234,0.1318307289123535,9.696367086029053
249835499290750,-0.0013438310706987977,-0.0016503608785569668,-0.0002519350382499397,0.044292730712890624,0.12674305038452147,9.684396077728271
249835509262750,-0.001989913871511817,-0.0016490293201059103,0.00041811628034338355,0.03755903854370117,0.12449848632812499,9.694122521972655
249835519235750,-0.0020303940400481224,-0.0027017768006771803,0.0006953513366170228,0.0469862075805664,0.1388636962890625,9.689633393859863
249835529208542,-0.0018580874893814325,-0.0028040423057973385,0.0009166600648313761,0.05461772537231445,0.1292868896484375,9.696666361236572
249835539181542,-0.002386458683758974,-0.0003635214816313237,0.0012599414912983775,0.04548983154296875,0.14125789794921875,9.687837742614745
249835549153542,-0.0033009881153702736,-0.0014482269762083888,0.0013683321885764599,0.0474351203918457,0.13407529296874998,9.690231944274903
249835559125542,-0.00315957423299551,-0.002293780678883195,0.00031318774563260376,0.046537294769287106,0.12629413757324218,9.692027595520019
249835569098542,-0.003832022426649928,-0.0040943436324596405,-0.00026791400159709156,0.03965396499633789,0.13168109130859373,9.7039986038208
249835579070542,-0.00387356779538095,-0.0028533106669783592,0.0014032195322215557,0.027084406280517576,0.1292868896484375,9.711330846405028
249835589043542,-0.0005456816870719194,-0.0028583707753568888,0.0012058793799951673,0.03755903854370117,0.1253963119506836,9.687538467407226
249835599015542,-0.001757952617481351,-0.001558748190291226,-5.246427463134751e-05,0.04563946914672851,0.12120645904541015,9.683498252105712
249835608988542,-0.0013938985066488385,-0.0016250609187409282,0.00041678472189232707,0.0474351203918457,0.13063362808227538,9.695319622802733
249835618960542,-0.002365419641137123,-0.002906840294599533,0.0011206581257283688,0.037708676147460936,0.13826514587402344,9.700257663726806
249835628933542,-0.002130528911948204,-0.0018751317402347922,-0.0006705839768983424,0.03037643356323242,0.13093290328979493,9.686191728973387
249835638905542,-0.002017344580963254,-0.0027893949300050735,0.0013347762869670987,0.03127425918579101,0.12464812393188476,9.698611650085448
249835648878542,-0.0022280006669461727,-0.002615224104374647,0.0013576794881373644,0.040102877807617184,0.13856442108154296,9.70444751663208
249835658850542,-0.0022272015921771526,-0.0011254518758505583,0.0019358517602086067,0.05192424850463867,0.13213000411987305,9.703250415802001
249835668823542,-0.0036389431916177273,-0.0013017531018704176,-0.00020000340009573847,0.040402153015136714,0.1274912384033203,9.692177233123779
249835678795542,-0.0010783139150589705,-0.0020040287636220455,-0.0005882922559976578,0.041000703430175776,0.12629413757324218,9.687388829803465
249835688768542,-0.0020969731267541647,-0.0029904635157436132,0.002936135046184063,0.042945992279052735,0.13108254089355467,9.696067810821532
249835698740542,-0.002956641372293234,-0.001981924520805478,0.00033955302205868065,0.047884033203124995,0.12449848632812499,9.688885205841064
249835708713542,-0.0029611687641590834,-0.0012727247085422277,0.0011595403775572777,0.0330699104309082,0.1288379768371582,9.696067810821532
249835718685542,-0.003335342975333333,-0.003041330026462674,-0.00047404266661033034,0.03516483688354492,0.13572130661010742,9.690381581878661
249835728658542,-0.0024370586033910513,-0.0018639464396983385,0.0009981527691707015,0.04608838195800781,0.14350246200561523,9.704896429443359
249835738630542,-0.0007896272582001984,-0.0002980077115353197,0.0005328985280357301,0.04249707946777344,0.12958616485595703,9.698611650085448
249835748603542,-0.0033625070936977863,-0.003236006945371628,0.0012183962389826775,0.0326209976196289,0.13422493057250975,9.703400053405762
249835758575542,-0.00233825552277267,-0.0020695424173027277,0.00025592977181077003,0.03815758895874023,0.13646949462890623,9.700257663726806
249835768548542,-0.0009089368977583945,-0.003177417442202568,0.0003014698449987918,0.028730419921875,0.1388636962890625,9.676016371917724
249835778520542,-0.002879942301660776,-0.0020511667244136333,0.00017363809456583112,0.0330699104309082,0.13332710494995118,9.685443540954589
249835788493542,-0.0026059031952172518,-0.002829608740285039,-0.00029827404068782926,0.03411737365722656,0.13168109130859373,9.695768535614013
249835798465542,-0.002852778183296323,-0.0028881982434540987,0.00047697214176878333,0.03681085052490234,0.14814122772216795,9.693523971557617
249835808438542,-0.0029169602785259485,-0.002602973720058799,0.0006410228670574725,0.04399345550537109,0.12913725204467771,9.68409680252075
249835818410542,-0.0035057852510362864,-0.0019443739438429475,0.0020274645648896694,0.04773439559936523,0.12524667434692383,9.690980132293701
249835828383542,-0.002040247665718198,-0.0020474381744861603,0.0010615360224619508,0.03860650177001953,0.13407529296874998,9.698162737274169
249835838355542,-0.0016359798610210419,-0.002642122097313404,-0.0008737831376492977,0.04055179061889648,0.12195464706420897,9.705195704650878
249835848327542,-0.0008732505375519395,-0.0029726203065365553,0.002353701740503311,0.04399345550537109,0.12943652725219726,9.701604402160644
249835858300542,-0.0031316110398620367,-0.00035952674807049334,0.0012175972806289792,0.04683656997680664,0.13213000411987305,9.681403325653076
249835868272542,-0.0034671693574637175,-0.0031561122741550207,0.0014436995843425393,0.03980360260009765,0.13826514587402344,9.679158761596678
249835878245542,-0.0031734227668493986,-0.0026264095213264227,0.001540638622827828,0.04578910675048828,0.1452981132507324,9.692476508331298
249835888217542,-0.002237321576103568,-0.0013470269041135907,0.002282062778249383,0.049530046844482416,0.13736732025146484,9.69771382446289
249835898190542,-0.0017267935909330845,-0.001671666163019836,0.0010050770360976458,0.044891281127929686,0.1274912384033203,9.692177233123779
249835908162542,-0.002150768879801035,-0.003631486324593425,-8.921589324017987e-05,0.048183308410644526,0.13826514587402344,9.719560914611815
249835918135542,-0.001065264455974102,-0.003226952161639929,-0.000300404557492584,0.02663549346923828,0.13332710494995118,9.699958388519287
249835928107542,-0.0019148128340020776,-0.0018961706664413214,0.0009944243356585503,0.038756139373779294,0.1361702194213867,9.700556938934326
249835938080542,-0.0027563716284930706,-0.0020519655663520098,-1.25168571685208e-05,0.04055179061889648,0.1327285545349121,9.688137017822266
249835948052542,-0.0018903117161244154,-0.002549444092437625,0.0007898935582488775,0.043245267486572266,0.1318307289123535,9.689932669067382
249835958025542,-0.001181111903861165,-0.003096723696216941,0.0006399576086550951,0.04878185882568359,0.14125789794921875,9.701305126953125
249835967997542,-0.0023031015880405903,-0.00159443449229002,-0.0014122743159532547,0.04548983154296875,0.127042325592041,9.705345342254638
249835977970542,-0.001719603082165122,-0.0017784589435905218,0.0008295746520161629,0.04863222122192382,0.12060790863037109,9.689184481048583
249835987942542,-0.002499110298231244,-0.0017718010349199176,-0.000179230744834058,0.046238019561767575,0.12524667434692383,9.69142904510498
249835997915542,-0.002560895634815097,-0.0031814121175557375,0.0010972223244607449,0.04384381790161133,0.12330138549804687,9.714772511291503
249836007887542,-0.0016812535468488932,-0.0020277309231460094,0.001532382913865149,0.03681085052490234,0.12823942642211913,9.698162737274169
249836017860542,-0.001618136651813984,-0.0008833705214783549,0.0008210525847971439,0.041000703430175776,0.13078326568603516,9.682899701690673
249836027832542,-0.0017094830982387066,-0.0028690234757959843,0.001529187080450356,0.04414309310913086,0.1479915901184082,9.688585930633545
249836037805542,-0.0019185412675142288,-0.0015166702214628458,0.00029401297797448933,0.03755903854370117,0.14679448928833008,9.69771382446289
249836047777542,-0.003579022129997611,-0.0017936390358954668,0.0017526262672618032,0.04638765716552734,0.12105682144165038,9.673622170257568
249836057750542,-0.001975532853975892,-0.001508680754341185,0.0019499665359035134,0.029328970336914062,0.13093290328979493,9.692775783538817
249836067722542,-0.0024881914723664522,-0.002552373567596078,0.000972852751147002,0.037409400939941405,0.13302782974243163,9.689034843444823
249836077695542,-0.002633333671838045,-0.0021201425697654486,0.000215716048842296,0.03980360260009765,0.13003507766723632,9.695469260406494
249836087667542,-0.0016841830220073462,-0.0031073763966560364,0.0008727178792469203,0.035464112091064454,0.1274912384033203,9.700257663726806
249836097640542,-0.0022690133191645145,-0.003204049076884985,0.001288171042688191,0.029179332733154296,0.13287819213867186,9.694122521972655
249836107612542,-0.0036818201187998056,-0.0012844426091760397,0.0008013451588340104,0.03815758895874023,0.13392565536499024,9.694421797180174
249836117585542,-0.0015393070643767715,-0.001957423286512494,2.7696874894900247e-05,0.03277063522338867,0.12389993591308593,9.70504606704712
249836127557542,-0.0013014868600293994,-0.0014077469240874052,0.001130245509557426,0.04444236831665039,0.1288379768371582,9.711929396820068
249836137530542,-0.0028128307312726974,-0.001981391804292798,-2.9827404432580806e-05,0.031124621582031248,0.13587094421386717,9.69142904510498
249836147502542,-0.003335342975333333,-0.0024884575977921486,-0.0005083974683657289,0.027533319091796873,0.1409586227416992,9.693224696350097
249836157474542,-0.0033688987605273724,-0.0019859191961586475,0.00011984224693151191,0.04384381790161133,0.14245499877929688,9.690082306671142
249836167447542,-0.0024767396971583366,-0.0019891150295734406,0.0007595335482619703,0.042646717071533204,0.1475426773071289,9.692476508331298
249836177419542,-0.0020216056145727634,-0.0024948492646217346,0.001919340225867927,0.040402153015136714,0.1414075355529785,9.714323598480224
249836187392542,-0.0030692932195961475,-0.0023672839161008596,0.000835966260638088,0.03067570877075195,0.13198036651611328,9.709385557556152
249836197364542,-0.0031819448340684175,-0.0021470405627042055,0.0015060176374390721,0.03411737365722656,0.1279401512145996,9.705644617462157
249836207337542,-0.0023100259713828564,-0.003460511565208435,0.0024804682470858097,0.03755903854370117,0.1352723937988281,9.696666361236572
249836217309542,-0.0026546388398855925,-0.0023441144730895758,0.001181111903861165,0.04234744186401367,0.12988544006347655,9.694272159576416
249836227282542,-0.001508414396084845,-0.0028756812680512667,0.00027856664382852614,0.03681085052490234,0.12015899581909179,9.708487731933593
249836237254542,-0.0033686324022710323,-0.002657035831362009,-0.00011132013605674729,0.051475335693359374,0.13557166900634765,9.700108026123047
249836247227542,-0.0018048242200165987,-4.1545314161339775e-05,0.0014085458824411035,0.04683656997680664,0.1258452247619629,9.69083049468994
249836257199542,-0.000523577444255352,-0.0014357101172208786,0.000713993504177779,0.03516483688354492,0.13108254089355467,9.683647889709473
249836267172542,-0.0022511701099574566,-0.003044259501621127,0.00037976677413098514,0.0474351203918457,0.12389993591308593,9.690082306671142
249836277144542,-0.001961418194696307,-0.002198972040787339,0.0005006743012927473,0.056712651824951166,0.12434884872436523,9.696217448425292
249836287117542,-0.0036301547661423683,-0.001210939371958375,0.0019089538836851716,0.03681085052490234,0.12105682144165038,9.686042091369629
249836297089542,-0.0032945964485406876,-0.001865544356405735,0.0019441075855866075,0.03232172241210937,0.12554594955444334,9.69741454925537
249836307062542,-0.0020540961995720863,-0.0028431906830519438,0.0006743124104104936,0.03486556167602539,0.13407529296874998,9.69696563644409
249836317034542,-0.003641073824837804,-0.0024282701779156923,0.0005648564547300339,0.03860650177001953,0.12479776153564452,9.700108026123047
249836327007542,-0.002825880190357566,-0.0025680861435830593,-3.51537273672875e-05,0.05461772537231445,0.1388636962890625,9.702202952575684
249836336979542,-0.0033989925868809223,-0.00230816169641912,0.0012066783383488655,0.04563946914672851,0.1322796417236328,9.695319622802733
249836346952542,-0.0035265579354017973,-0.0018181400373578072,0.0011946940794587135,0.044292730712890624,0.11896189498901366,9.694272159576416
249836356924542,-0.0034194989129900932,-0.0031246868893504143,0.0005424859118647873,0.04548983154296875,0.13781623306274413,9.696815998840332
249836366897542,-0.0027260116767138243,-0.0023901870008558035,0.0014444985426962376,0.035464112091064454,0.13602058181762694,9.688585930633545
249836376869542,-0.0006431533838622272,-0.002372077666223049,-0.0004524710529949516,0.04519055633544922,0.1393126091003418,9.687688105010986
249836386842542,-0.002095375210046768,-0.0005811017472296953,0.0018844527658075094,0.028880057525634766,0.13856442108154296,9.68469535293579
249836396814542,-0.0021632856223732233,-0.0024136228021234274,0.0020655477419495583,0.034715924072265626,0.13826514587402344,9.70504606704712
249836406787542,-0.0023763386998325586,-0.00324799120426178,0.0017350494163110852,0.031573534393310544,0.13781623306274413,9.684246440124511
249836416759542,-0.003126551164314151,-0.00261788722127676,0.0014586133183911443,0.02693476867675781,0.14380173721313474,9.704746791839598
249836426732542,-0.0023917849175632,-0.0022562299855053425,0.0014255901332944632,0.049530046844482416,0.1384147834777832,9.70459715423584
249836436704542,-0.002046639332547784,-0.0011627360945567489,0.0018498316640034318,0.042945992279052735,0.12479776153564452,9.698761287689209
249836446677542,-0.0036855486687272787,-0.001285241567529738,-0.0005779059720225632,0.039354689788818356,0.12913725204467771,9.689932669067382
249836456649542,-0.003032541600987315,-0.001455151243135333,0.0003608583356253803,0.03411737365722656,0.13602058181762694,9.695319622802733
249836466622542,-0.00213638786226511,-0.0019289276096969843,-0.0001840244367485866,0.03800795135498047,0.12375029830932617,9.695768535614013
249836476594542,-0.002216548891738057,-0.002380866091698408,0.00133850472047925,0.03965396499633789,0.12943652725219726,9.686341366577148
249836486567542,-0.0029917950741946697,-0.0013201289111748338,0.0019504991360008717,0.0330699104309082,0.13736732025146484,9.712228672027587
249836496539542,-0.00207673292607069,-0.0024535702541470528,0.0010924286907538772,0.0383072265625,0.1253963119506836,9.701005851745604
249836506512542,-0.002124137245118618,-0.0019627497531473637,0.002543585142120719,0.04234744186401367,0.1253963119506836,9.689034843444823
249836516484542,-0.001817341079004109,-0.0031960594933480024,0.0012295814231038094,0.044592005920410155,0.14036007232666015,9.687239192199707
249836526457542,-0.002587793627753854,-0.0023784691002219915,0.0010833739070221782,0.040701428222656245,0.14155717315673827,9.686790279388427
249836536429042,-0.0026786073576658964,-0.0013129384024068713,0.0005336974863894284,0.03456628646850586,0.14110826034545898,9.694721072387695
249836546402042,-0.0019443739438429475,-0.00330285239033401,0.000746750389225781,0.0330699104309082,0.12375029830932617,9.689783031463623
249836556374042,-0.002642122097313404,-0.003973968792706728,-0.0003153182624373585,0.04504091873168945,0.13257891693115234,9.693224696350097
249836566347042,-0.0028035095892846584,-0.00192200334277004,0.002371544949710369,0.03845686416625976,0.11626841812133788,9.689633393859863
249836576319042,-0.0013174657942727208,-0.0017832526937127113,0.0008205199264921248,0.04189852905273437,0.1345242057800293,9.710881933593749
249836586291042,-0.002478603972122073,-0.0032927324064075947,-3.488740912871435e-05,0.038756139373779294,0.13467384338378904,9.694122521972655
249836596264042,-0.0032077773939818144,-0.0021499700378626585,0.002572613535448909,0.04833294601440429,0.14619593887329102,9.682151513671874
249836606236042,-0.0028418591246008873,-0.0005573995877057314,0.0011528824688866735,0.03755903854370117,0.13676876983642577,9.689034843444823
249836616209042,-0.0033398703671991825,-0.00236302288249135,0.0009526127250865102,0.043544542694091797,0.13138181610107422,9.692027595520019
249836626181042,-0.0009771138429641724,-0.0003683151735458523,0.0021044297609478235,0.056712651824951166,0.127042325592041,9.72285294189453
249836636154042,-0.001901230658404529,-0.0018924422329291701,0.001472728094086051,0.0330699104309082,0.12988544006347655,9.690231944274903
249836646126042,-0.002627474721521139,-0.0023965786676853895,0.0008900284301489592,0.033818098449707026,0.12300211029052734,9.69083049468994
249836656099042,-0.002296976512297988,-0.0029409287963062525,-0.00024767397553659976,0.0378583137512207,0.1288379768371582,9.693673609161376
249836666071042,-0.0018551580142229795,-0.002959570847451687,0.0001371527905575931,0.0326209976196289,0.14110826034545898,9.69801309967041
249836676044042,-0.0036136433482170105,-0.002557699801400304,0.002311091171577573,0.033518823242187495,0.1274912384033203,9.703848966217041
249836686016042,-0.002240251051262021,-0.0037121803034096956,0.001085770782083273,0.037409400939941405,0.1258452247619629,9.695918173217773
249836695989042,-0.003357979701831937,-0.003388073528185487,0.0024375913199037313,0.05057751007080078,0.13138181610107422,9.705644617462157
249836705961042,-0.0030772825703024864,-0.003123888047412038,0.001711081014946103,0.03696048812866211,0.1197100830078125,9.69846201248169
249836715934042,-0.0028522454667836428,-0.001794171635992825,0.0005973470397293568,0.0469862075805664,0.13332710494995118,9.698910925292969
249836725906042,-0.002061553066596389,-0.002351038623601198,0.0018194715958088636,0.04833294601440429,0.13721768264770506,9.69831237487793
249836735879042,-0.0025569009594619274,-0.0016817862633615732,0.0010428938549011946,0.04848258361816406,0.13198036651611328,9.693523971557617
249836745851042,-0.002168345730751753,-0.0028506475500762463,0.0005041363765485585,0.03980360260009765,0.12015899581909179,9.694571434783935
249836755824042,-0.0003842941368930042,-0.001996571896597743,6.072007090551779e-05,0.040402153015136714,0.13213000411987305,9.689034843444823
249836765796042,-0.0011355718597769737,-0.002147839404642582,0.001193362521007657,0.04608838195800781,0.13602058181762694,9.693523971557617
249836775769042,-0.002650910522788763,-0.0017355820164084435,0.0002511360798962414,0.037110125732421874,0.1497872413635254,9.701754039764404
249836785741042,-0.002522812457755208,-0.0011414308100938797,0.000987766426987946,0.035763387298583985,0.13721768264770506,9.694571434783935
249836795714042,-0.0027806065045297146,-0.0024892566725611687,0.0008082693675532937,0.04414309310913086,0.12988544006347655,9.700856214141846
249836805686042,-0.0019470370607450604,-0.0026959178503602743,0.002403236459940672,0.0430956298828125,0.13093290328979493,9.697264911651612
249836815659042,-0.0024913870729506016,-0.0018575548892840743,0.001327053178101778,0.04444236831665039,0.13093290328979493,9.701903677368163
249836825631042,-0.0021108214277774096,-0.0029236183036118746,0.0016319850692525506,0.037110125732421874,0.13422493057250975,9.696516723632811
249836835604042,-0.0032447953708469868,-0.0024261397775262594,0.00130920996889472,0.026485855865478514,0.1370680450439453,9.694870709991454
249836845576042,-0.001832521171309054,-0.0014615427935495973,0.001511610229499638,0.041748891448974604,0.13347674255371092,9.696666361236572
249836855549042,-0.0038072550669312477,-0.0029878003988415003,0.0009552759001962841,0.03755903854370117,0.12898761444091797,9.695020347595214
249836865521042,-0.001582982949912548,-0.0020333235152065754,0.0014205301413312554,0.04369418029785156,0.13557166900634765,9.711929396820068
249836875494042,-0.00293400464579463,-0.0017784589435905218,-0.00038402783684432507,0.0326209976196289,0.13631985702514648,9.69741454925537
249836885466042,-0.003786748740822077,-0.00033342777169309556,0.0002865561400540173,0.04833294601440429,0.1361702194213867,9.692326870727538
249836895439042,-0.000597879639826715,-0.001844771672040224,0.0010327738709747791,0.03232172241210937,0.14829086532592772,9.69801309967041
249836905411042,-0.003102049930021167,-0.0029196233954280615,0.0006817692192271352,0.04414309310913086,0.1384147834777832,9.699509475708007
249836915384042,-0.0023755396250635386,-0.0012335762148723006,0.0007640608819201589,0.038756139373779294,0.13257891693115234,9.680804775238036
249836925356042,-0.002400839701294899,-0.0011704593198373914,-0.00028069718973711133,0.04399345550537109,0.12734160079956053,9.687538467407226
249836935329042,-0.0026045716367661953,-0.000928377965465188,0.0009299758239649236,0.03860650177001953,0.12015899581909179,9.695020347595214
249836945301042,-0.0038746329955756664,-0.0017757958266884089,6.471481174230576e-05,0.05117606048583984,0.13437456817626953,9.699509475708007
249836955274042,-0.0036075180396437645,-0.0028309402987360954,0.00044847631943412125,0.04249707946777344,0.12734160079956053,9.693523971557617
249836965246042,-0.0023877902422100306,-0.0029372002463787794,0.002182993106544018,0.050427872467041016,0.13721768264770506,9.692177233123779
249836975219042,-0.0025590313598513603,-0.0020208065398037434,-0.00013688647595699877,0.04608838195800781,0.13587094421386717,9.701903677368163
249836985191042,-0.0024410535115748644,-0.002299373270943761,0.0005803027888759971,0.0383072265625,0.13976152191162108,9.709086282348633
249836995164042,-0.002782204421237111,-0.0022559636272490025,-7.110639853635803e-05,0.03411737365722656,0.12674305038452147,9.682301151275635
249837005136042,-0.0026812704745680094,-0.0012871057260781527,-0.00026604978484101593,0.040102877807617184,0.11641805572509765,9.69786346206665
249837015109042,-0.002113218419253826,-0.0018764632986858487,0.0029079054947942495,0.040402153015136714,0.12045827102661132,9.699958388519287
249837025081042,-0.003412574529647827,-0.0019185412675142288,-0.0014093448407948017,0.03980360260009765,0.13422493057250975,9.698910925292969
249837035054042,-0.0026967169251292944,-0.0018112158868461847,-0.00024501082953065634,0.03980360260009765,0.11656769332885741,9.70414824142456
249837045026042,-0.0025688852183520794,-0.0037529265973716974,0.0004799016169272363,0.04249707946777344,0.12823942642211913,9.714024323272705
249837054999042,-0.0022295983508229256,-0.003412574529647827,0.001654355670325458,0.04474164352416992,0.1304839904785156,9.710881933593749
249837064971042,-0.0028418591246008873,-0.0012215919559821486,0.0011906992876902223,0.04249707946777344,0.13676876983642577,9.714173960876463
249837074944042,-0.0028687571175396442,-0.0022892532870173454,-2.210423735959921e-05,0.031124621582031248,0.1361702194213867,9.709535195159912
249837084916042,-0.004972388036549091,-0.0025334651581943035,0.0011321097845211625,0.030974983978271482,0.1352723937988281,9.702053314971923
249837094889042,-0.002433863002806902,-0.0020927118603140116,0.0008820389630272985,0.028880057525634766,0.1379658706665039,9.697264911651612
249837104861042,-0.0027294738683849573,-0.0018434401135891676,0.001790975802578032,0.03067570877075195,0.13691840744018555,9.69187795791626
249837114834042,-0.0016972325975075364,-0.0010311759542673826,0.0006317017832770944,0.035763387298583985,0.1283890640258789,9.689783031463623
249837124806042,-0.001752093667164445,-0.002369148191064596,0.0016445019282400608,0.04519055633544922,0.13587094421386717,9.699958388519287
249837134779042,-0.002983805723488331,-0.002311091171577573,0.001156877144239843,0.04129997863769531,0.13946224670410157,9.686191728973387
249837144751042,-0.0014389059506356716,-0.003977430984377861,0.0015363775892183185,0.04369418029785156,0.12315174789428711,9.696516723632811
249837154724042,-0.0025859293527901173,-0.0019715381786227226,0.0008551410282962024,0.04683656997680664,0.13108254089355467,9.692326870727538
249837164696042,-0.0020700751338154078,-0.00207673292607069,0.0013334447285160422,0.050427872467041016,0.14380173721313474,9.70459715423584
249837174669042,-0.00247567449696362,-0.0010881676571443677,0.0022386531345546246,0.03651157531738281,0.13302782974243163,9.69142904510498
249837184641042,-0.002510828198865056,-0.0023105584550648928,7.323692989302799e-05,0.04908113403320312,0.1349731185913086,9.694421797180174
249837194614042,-0.002261023735627532,-0.0025390577502548695,-3.6218989407643676e-05,0.04159925384521484,0.1274912384033203,9.689783031463623
249837204586042,-0.0030863373540341854,-0.002692722249776125,0.001261539408005774,0.036361937713623046,0.12779051361083985,9.699359838104247
249837214559042,-0.0028091021813452244,-0.0017989652696996927,0.0006439523422159255,0.029628245544433593,0.12823942642211913,9.70968483276367
249837224531042,-0.0026700852904468775,-0.0019832560792565346,0.0015566176734864712,0.03696048812866211,0.13766659545898435,9.706392805480956
249837234504042,-0.003919374197721481,-0.002543851500377059,0.0008064051507972181,0.031872809600830075,0.13871405868530273,9.693673609161376
249837244476042,-0.0018216022290289402,-0.002498843939974904,0.0022061625495553017,0.03920505218505859,0.13302782974243163,9.69157868270874
249837254449042,-0.0010213222121819854,-0.0032679650466889143,0.0012825783342123032,0.041748891448974604,0.1349731185913086,9.692925421142577
249837264421042,-0.002385925967246294,-0.002734001260250807,0.0002801645314320922,0.03845686416625976,0.1336263801574707,9.69771382446289
249837274394042,-0.00384374032728374,-0.00239258399233222,-8.52211542223813e-06,0.04189852905273437,0.13257891693115234,9.702801502990722
249837284366042,-0.002540655666962266,-0.002939863596111536,0.0004743089957628399,0.03950432739257812,0.1396118843078613,9.69771382446289
249837294339042,-0.001862614881247282,-0.0023606258910149336,0.0009028115891851485,0.03666121292114258,0.13302782974243163,9.695768535614013
249837304311042,-0.00213612150400877,-0.0034855452831834555,0.002409894485026598,0.045938744354248044,0.1304839904785156,9.690231944274903
249837314284042,-0.0025955168530344963,-0.0020847225096076727,0.0020474381744861603,0.03815758895874023,0.13093290328979493,9.676016371917724
249837324256042,-0.0017515610670670867,-0.0020991035271435976,0.0011558119440451264,0.04803367080688476,0.12958616485595703,9.689034843444823
249837334229042,-0.0022623552940785885,-0.0013693973887711763,0.0006444850005209446,0.03980360260009765,0.13332710494995118,9.695768535614013
249837344201042,-0.0021574266720563173,-0.0023188143968582153,-0.000261788722127676,0.044292730712890624,0.1409586227416992,9.687089554595946
249837354174042,-0.0013667342718690634,-0.0008807073463685811,0.0009773800848051906,0.049829322052001954,0.1331774673461914,9.692326870727538
249837364146042,-0.0013164004776626825,-0.002341983839869499,0.0005339637864381075,0.05102642288208008,0.1240495735168457,9.692177233123779
249837374119042,-0.0014658038271591067,-0.003212837502360344,-0.0002258360618725419,0.03681085052490234,0.12524667434692383,9.696666361236572
249837384091042,-0.001276186783798039,-0.0022543659433722496,0.0018692727899178863,0.03561374969482422,0.13093290328979493,9.683947164916992
249837394064042,-0.0040826257318258286,-0.0021081583108752966,-7.909588020993397e-05,0.04608838195800781,0.1288379768371582,9.701155489349365
249837404036042,-0.001258343574590981,-0.0019971043802797794,0.00058323226403445,0.04085106582641601,0.1261444999694824,9.693075058746338
249837414009042,-0.0020969731267541647,-0.0009086705395020545,0.00011238539445912465,0.04608838195800781,0.13377601776123046,9.694421797180174
249837423981042,-0.002267149044200778,-0.003037335118278861,0.000574177538510412,0.04608838195800781,0.12779051361083985,9.695169985198975
249837433954042,-0.002010420197620988,-0.002351038623601198,0.0010602044640108943,0.04908113403320312,0.14170681076049804,9.690980132293701
249837443926042,-0.003878627670928836,-0.002784867538139224,0.003605387406423688,0.040402153015136714,0.14036007232666015,9.699359838104247
249837453899042,-0.0032735576387494802,-0.0021467742044478655,0.0018383801216259599,0.031573534393310544,0.13646949462890623,9.683797527313232
249837463871042,-0.0020455741323530674,-0.002681004349142313,0.0017544905422255397,0.04534019393920898,0.12150573425292968,9.69741454925537
249837473844042,-0.004194478504359722,-0.001511610229499638,0.001276453142054379,0.03995324020385742,0.12479776153564452,9.693075058746338
249837483816042,-0.0028186896815896034,-0.002951048780232668,0.001094825565814972,0.04773439559936523,0.14021043472290037,9.696666361236572
249837493789042,-0.003329217666760087,-0.0016114787431433797,-0.0002889529860112816,0.04444236831665039,0.14499883804321287,9.692326870727538
249837503761042,-0.0017986990278586745,-0.002560895634815097,-0.000639691308606416,0.05716156463623046,0.13631985702514648,9.703848966217041
249837513734042,-0.002796319080516696,-0.0029284118209034204,0.0008769789128564298,0.04115034103393554,0.1336263801574707,9.693224696350097
249837523706042,-0.0012809804175049067,-0.0025036376900970936,0.0022184131667017937,0.04668693237304687,0.13946224670410157,9.686790279388427
249837533678750,-0.002984072081744671,-0.0014293185668066144,0.0008980178972706199,0.037110125732421874,0.12689268798828124,9.685892453765868
249837543650750,-0.0024868599139153957,-0.0036365464329719543,0.0015081481542438269,0.05491700057983398,0.1327285545349121,9.700108026123047
249837553623750,-0.0014317154418677092,-0.0007773766992613673,0.00012303804396651685,0.046238019561767575,0.13168109130859373,9.68499462814331
249837563595750,-0.003296194365248084,-0.003099386813119054,0.0010823087068274617,0.0330699104309082,0.13826514587402344,9.706841718292235
249837573568750,-0.0015070828376337886,-0.00025007082149386406,0.0004543352697510272,0.036361937713623046,0.12779051361083985,9.706991355895996
249837583540750,-0.0032767534721642733,-0.0019915117882192135,-0.0005824333056807518,0.03755903854370117,0.12195464706420897,9.705794255065918
249837593513750,-0.0038256309926509857,-0.0015752597246319056,0.001038632821291685,0.03681085052490234,0.1327285545349121,9.686042091369629
249837603485750,-0.001466869143769145,-0.0014982944121584296,0.0007512777228839695,0.03456628646850586,0.13063362808227538,9.687388829803465
249837613458750,-0.003025350859388709,-0.0025989788118749857,-5.326322025211994e-06,0.03890577697753906,0.1327285545349121,9.695020347595214
249837623430750,-0.002409361768513918,-0.0022599585354328156,0.001032507512718439,0.042646717071533204,0.13108254089355467,9.69068085708618
249837633403750,-0.0018421085551381111,-0.002375007141381502,0.0004551342281047255,0.04504091873168945,0.12719196319580078,9.69068085708618
249837643375750,-0.0022418489679694176,-0.001573928166180849,0.0012024171883240342,0.03845686416625976,0.13168109130859373,9.69112976989746
249837653348750,-0.0016282566357403994,-0.0017499631503596902,0.000461259507574141,0.0430956298828125,0.1236006607055664,9.695469260406494
249837663320750,-0.00247594085521996,-0.0006884271278977394,0.0003408846096135676,0.042945992279052735,0.14604630126953125,9.689783031463623
249837673293750,-0.0017608820926398039,-0.0020013656467199326,0.0006823018775321543,0.050727147674560547,0.13557166900634765,9.692326870727538
249837683265750,-0.0014700648607686162,-0.0015811186749488115,0.0003225088003091514,0.05087678527832031,0.1279401512145996,9.69771382446289
249837693238750,-0.0025220136158168316,-0.002344913315027952,0.0008727178792469203,0.0326209976196289,0.12898761444091797,9.69756418685913
249837703210750,-0.002189118415117264,-0.0009989517275243998,0.0012290488230064511,0.032172084808349606,0.14544775085449219,9.686191728973387
249837713183750,-0.0011198592837899923,-0.002557699801400304,0.0018216022290289402,0.04444236831665039,0.12808978881835936,9.692775783538817
249837723155750,-0.0010463559301570058,-0.002775546396151185,0.0008072041091509163,0.04414309310913086,0.13213000411987305,9.696815998840332
249837733128750,-0.0017390442080795765,-0.0019265307346358895,0.0008737831376492977,0.051475335693359374,0.11372457885742186,9.686042091369629
249837743100750,-0.001856223214417696,-0.0035984632559120655,0.0021260015200823545,0.04279635467529297,0.13287819213867186,9.693224696350097
249837753073750,-0.002415220718830824,-0.001237571006640792,0.000580036488827318,0.03591302490234375,0.12943652725219726,9.705644617462157
249837763045750,-0.0026024410035461187,-0.0031670311000198126,0.001478320686146617,0.02289455337524414,0.1222539222717285,9.694870709991454
249837773018750,-0.003912183456122875,-0.002432531211525202,0.0013787185307592154,0.01945288848876953,0.1384147834777832,9.703848966217041
249837782990750,-0.0017366473330184817,-0.0027563716284930706,0.00010359696898376569,0.031573534393310544,0.12958616485595703,9.700706576538085
249837792963750,-0.0009028115891851485,-0.00024580975878052413,-0.0002585929469205439,0.037409400939941405,0.13242927932739257,9.69696563644409
249837802935750,-0.0026786073576658964,-0.0033004553988575935,0.0008825715631246567,0.03965396499633789,0.1452981132507324,9.683049339294433
249837812908750,-0.003945473115891218,-0.0034908715169876814,0.0006588660762645304,0.03067570877075195,0.12554594955444334,9.694122521972655
249837822880750,-0.0018453042721375823,-0.002435460686683655,0.0012205267557874322,0.04384381790161133,0.1258452247619629,9.71058265838623
249837832853750,-0.002167813014239073,-0.00159470085054636,0.0009334379574283957,0.04638765716552734,0.13063362808227538,9.694721072387695
249837842825750,-0.001862614881247282,-0.0030921963043510914,0.0011797803454101086,0.055365913391113276,0.1345242057800293,9.693823246765136
249837852798750,-0.0010844392236322165,-0.0019449065439403057,0.0009054747642949224,0.04249707946777344,0.12644377517700195,9.690082306671142
249837862770750,-0.0009688580175861716,-0.0021544971968978643,0.001365402713418007,0.04369418029785156,0.12958616485595703,9.679757312011718
249837872743750,-0.004600876942276955,-0.001799764228053391,0.0020418455824255943,0.040102877807617184,0.13437456817626953,9.699210200500488
