timestamp_ns,wx,wy,wz,ax,ay,az
248677944153625,-0.0029675604309886694,-0.0018311894964426756,0.0011140003334730864,0.04384381790161133,0.15906477279663084,9.705345342254638
248677954125625,-0.0015401060227304697,-0.0023552996572107077,0.0008546083699911833,0.037110125732421874,0.1605611488342285,9.693673609161376
248677964097625,-0.0021723404061049223,-0.000993625377304852,0.00040187101694755256,0.043245267486572266,0.16175824966430663,9.697264911651612
248677974069625,-0.003040797309949994,-0.0022530341520905495,0.0005102616851218045,0.0430956298828125,0.16654665298461913,9.699958388519287
248677984041625,-0.0022173479665070772,-0.002429868094623089,0.0006133259739726782,0.04189852905273437,0.15562310791015624,9.701454764556884
248677994013625,-0.003644269658252597,-8.468852320220321e-05,0.0016892430139705539,0.04414309310913086,0.15113397979736326,9.693374333953857
248678003984625,-0.002983539365231991,-0.0032836776226758957,0.0004207794554531574,0.046238019561767575,0.1414075355529785,9.680355862426758
248678013956625,-0.0020985708106309175,-0.0008141283178701997,0.0006327670416794717,0.044292730712890624,0.16250643768310546,9.683348614501952
248678023928625,-0.0030655646696686745,-0.001787779969163239,0.0010125337867066264,0.04414309310913086,0.16430208892822265,9.694122521972655
248678033900625,-0.0025156219489872456,-0.001418932224623859,0.001327053178101778,0.05596446380615234,0.15367781906127928,9.681403325653076
248678043872625,-0.0023670175578445196,-0.0024730113800615072,0.0011291803093627095,0.0474351203918457,0.14724340209960937,9.694571434783935
248678053844625,-0.0037238982040435076,-0.002103364560753107,0.002252501668408513,0.05910685348510742,0.14769231491088866,9.690231944274903
248678063816625,-0.0025238776579499245,-0.0024319987278431654,0.0006119944155216217,0.04997895965576172,0.16071078643798828,9.692775783538817
248678073788625,-0.002785400254651904,-0.0016114787431433797,0.0014295848086476326,0.047884033203124995,0.15906477279663084,9.693224696350097
248678083760625,-0.004668254870921373,-0.002317482838407159,0.0006261091912165284,0.05237316131591797,0.1475426773071289,9.706841718292235
248678093732625,-0.0027214842848479748,-0.0014029532903805375,0.0024612934794276953,0.05491700057983398,0.16011223602294922,9.71058265838623
248678103704625,-0.00333214714191854,-0.002091913018375635,0.0004271710349712521,0.049829322052001954,0.14933832855224607,9.689034843444823
248678113676625,-0.0034258903469890356,-0.0025241440162062645,-0.00015286543930415064,0.050427872467041016,0.15981296081542967,9.710881933593749
248678123648625,-0.0027771443128585815,-0.0029577065724879503,0.00046312372433021665,0.05401917495727539,0.15248071823120116,9.695020347595214
248678133620625,-0.0022269352339208126,-0.0013928331900388002,0.0004623247659765184,0.04474164352416992,0.15682020874023436,9.699060562896728
248678143592625,-0.0035459990613162518,-0.0013728595804423094,0.00021784658019896597,0.040402153015136714,0.15233108062744138,9.69741454925537
248678153564625,-0.0028964539524167776,-0.0008135957177728415,0.0009448895580135286,0.04115034103393554,0.14784195251464843,9.692775783538817
248678163536625,-0.001933721243403852,-0.0024615598376840353,0.0019342538435012102,0.05132569808959961,0.14320318679809568,9.71028338317871
248678173508625,-0.0021523667965084314,-0.002424009144306183,-0.0005022721597924829,0.05102642288208008,0.15113397979736326,9.699509475708007
248678183480625,-0.0025566346012055874,-0.0014559502014890313,-0.00016325176693499088,0.04908113403320312,0.14694412689208983,9.6917283203125
248678193452625,-0.0030945930629968643,-0.0018405106384307146,0.0010069411946460605,0.04713584518432617,0.1484405029296875,9.692326870727538
248678203424625,-0.003171025775372982,-0.001856755930930376,0.0006756439688615501,0.04548983154296875,0.14933832855224607,9.705345342254638
248678213396625,-0.0017712684348225594,-9.321063771494664e-06,0.0013057478936389089,0.041748891448974604,0.1444002876281738,9.707889181518555
248678223368625,-0.003454386256635189,-0.0010207896120846272,0.0013957626651972532,0.053420624542236325,0.15098434219360352,9.696516723632811
248678233340625,-0.0029111013282090425,-0.0019646140281111,0.00013129384024068713,0.05192424850463867,0.14724340209960937,9.704746791839598
248678243312625,-0.002138518262654543,-0.002301770029589534,-0.00024767397553659976,0.056114101409912104,0.15472528228759766,9.697115274047851
248678253284625,-0.002886067610234022,-0.001597896683961153,0.0007970841252245009,0.044592005920410155,0.15876549758911132,9.70504606704712
248678263256625,-0.002549177734181285,-0.0011028150329366326,0.001258876291103661,0.05027823486328125,0.15442600708007811,9.699210200500488
248678273228625,-0.00350472005084157,-0.002484729280695319,0.0022354573011398315,0.04967968444824218,0.15786767196655271,9.705195704650878
248678283200625,-0.0031577101908624172,-0.0020093549974262714,0.00035686357296071947,0.05776011505126953,0.1592144104003906,9.703400053405762
248678293172625,-0.001728924224153161,-0.002823749789968133,0.0018716695485636592,0.06539163284301758,0.1610100616455078,9.69771382446289
248678303144625,-0.0021225393284112215,-0.001228782464750111,0.0012767193838953972,0.047584757995605464,0.14829086532592772,9.689483756256102
248678313116625,-0.002993126632645726,-0.0016024239594116807,-0.0002378202771069482,0.041748891448974604,0.143652099609375,9.697115274047851
248678323088625,-0.002775546396151185,-0.0016916398890316486,0.001791242160834372,0.04115034103393554,0.14963760375976562,9.679158761596678
248678333060625,-0.003882356220856309,-0.0019121496006846428,0.0013731258222833276,0.0430956298828125,0.15233108062744138,9.69741454925537
248678343032625,-0.002481267089024186,-0.002630137838423252,0.0012383698485791683,0.045938744354248044,0.14888941574096679,9.706841718292235
248678353004625,-0.0017779263434931636,-0.002302302746102214,-0.0008689894457347691,0.05117606048583984,0.15352818145751954,9.69831237487793
248678362976625,-0.0019920445047318935,-0.001534779672510922,0.00227939966134727,0.053420624542236325,0.15876549758911132,9.699808750915526
248678372948625,-0.0012314456980675459,-0.0037286917213350534,0.0017923073610290885,0.044891281127929686,0.15023615417480468,9.707889181518555
248678382920625,-0.0036330842413008213,-0.0012628709664568305,-0.00013901700731366873,0.0430956298828125,0.14679448928833008,9.680206224822998
248678392892625,-0.0024048343766480684,-0.002095375210046768,0.0020447750575840473,0.04219780426025391,0.14649521408081054,9.698910925292969
248678402864625,-0.003634948516264558,-0.0017757958266884089,0.0019014970166608691,0.04129997863769531,0.16355390090942382,9.68499462814331
248678412835625,-0.00195129809435457,-0.0011347729014232755,-0.00013662016135640442,0.03815758895874023,0.15098434219360352,9.69756418685913
248678422808625,-0.0019417107105255127,-0.002251968951895833,0.00018082863243762404,0.04129997863769531,0.15696984634399413,9.708338094329834
248678432779625,-0.0022540995851159096,-0.001865011639893055,0.0002540655550546944,0.054767362976074214,0.15158289260864258,9.68559317855835
248678442751625,-0.0033308155834674835,-0.0031843415927141905,-0.0001102548703784123,0.05551555099487304,0.15098434219360352,9.695618898010252
248678452724500,-0.0016445019282400608,-0.0020413128659129143,0.0012950951931998134,0.028880057525634766,0.15158289260864258,9.702202952575684
248678462696500,-0.0017398431664332747,-0.0005411543534137309,0.0006498112925328314,0.04399345550537109,0.15427636947631834,9.688585930633545
248678472668500,-0.003201652318239212,-0.0015542207984253764,0.001606685109436512,0.04578910675048828,0.15382745666503905,9.692177233123779
248678482640500,-0.0024746092967689037,-0.001487375469878316,0.0009414274245500565,0.050427872467041016,0.15233108062744138,9.700257663726806
248678492612500,-0.0017094830982387066,-0.0033625070936977863,0.0006596649764105678,0.05401917495727539,0.1409586227416992,9.68559317855835
248678502584500,-0.0023156185634434223,-0.0020809939596801996,0.0010745854815468192,0.042945992279052735,0.15292963104248045,9.69083049468994
248678512556500,-0.0020985708106309175,-0.0014045510906726122,0.00145222176797688,0.04578910675048828,0.15547347030639647,9.701454764556884
248678522528500,-0.0034266894217580557,-0.0022242721170186996,0.001900964416563511,0.051475335693359374,0.16130933685302734,9.689334118652344
248678532500500,-0.0036962011363357306,-0.001443166984245181,0.0012599414912983775,0.04833294601440429,0.15696984634399413,9.695169985198975
248678542472500,-0.003266367129981518,-0.002424541860818863,0.0003376888344064355,0.045938744354248044,0.1571194839477539,9.69771382446289
248678552444500,-0.0041215079836547375,-0.002144377212971449,0.0008559399866499007,0.05521627578735351,0.14200608596801756,9.695169985198975
248678562416500,-0.0030341395176947117,-0.0019411781104281545,-0.00036192359402775764,0.04683656997680664,0.14021043472290037,9.705345342254638
248678572388500,-0.001967010786756873,-0.0017619474092498422,0.00021917815320193768,0.0474351203918457,0.15981296081542967,9.692775783538817
248678582360500,-0.002116147894412279,-0.002061819192022085,0.002264485927298665,0.04249707946777344,0.15502455749511718,9.709086282348633
248678592332500,-0.0018804579740390182,-0.0033771544694900513,-0.00031425300403498113,0.043245267486572266,0.14335282440185546,9.700556938934326
248678602304500,-0.0028847360517829657,-0.0005004079430364072,-6.578007742064074e-05,0.056114101409912104,0.14903905334472656,9.693224696350097
248678612276500,-0.004063184838742018,-0.0023960459511727095,0.0011108045000582933,0.04563946914672851,0.14110826034545898,9.68514426574707
248678622248500,-0.0029582392890006304,-0.0024000408593565226,0.0007603325066156685,0.05416881256103515,0.15173253021240232,9.694421797180174
248678632220500,-0.002695651724934578,-0.0015283881220966578,0.0008415589109063148,0.053719899749755856,0.15367781906127928,9.686341366577148
248678642192500,-0.004826713353395462,-0.0016357135027647018,0.0011725898366421461,0.05731120223999023,0.1497872413635254,9.694721072387695
248678652164500,-0.002532133599743247,-0.002531068166717887,0.001050084363669157,0.040701428222656245,0.15068506698608397,9.687388829803465
248678662136500,-0.0014050838071852922,-0.0020325244404375553,0.0002561961009632796,0.04773439559936523,0.1545756446838379,9.686491004180908
248678672108500,-0.0026170883793383837,-0.0018602180061861873,0.0003741741238627583,0.05162497329711914,0.15292963104248045,9.697115274047851
248678682080500,-0.003191798459738493,-0.0011627360945567489,0.001755289500579238,0.04638765716552734,0.15038579177856445,9.69741454925537
248678692052500,-0.001841575838625431,-0.002296976512297988,9.134642459684983e-05,0.06105214233398437,0.1619078872680664,9.699808750915526
248678702024500,-0.00039947417099028826,-0.0012013519881293178,0.001014398061670363,0.050128597259521485,0.14859014053344727,9.694122521972655
248678711996500,-0.0023997745011001825,-0.0028455876745283604,0.0008982842555269599,0.03995324020385742,0.1470937644958496,9.700856214141846
248678721968500,-0.0030458574183285236,-0.00256355875171721,0.0010271812789142132,0.04863222122192382,0.15173253021240232,9.703100778198241
248678731940500,-0.002254632068797946,-0.0034964641090482473,0.0009606021922081709,0.04863222122192382,0.15083470458984374,9.69771382446289
248678741912500,-0.001511610229499638,-0.001321194227784872,0.0006428870838135481,0.041748891448974604,0.15248071823120116,9.700706576538085
248678751884500,-0.0014479606179520488,-0.0022620889358222485,-4.5540054998127744e-05,0.052073886108398436,0.15218144302368164,9.69068085708618
248678761856500,-0.0020927118603140116,-0.0005254416610114276,0.00045673211570829153,0.048931496429443354,0.15203180541992187,9.705494979858399
248678771828500,-0.0029582392890006304,-0.0010655306978151202,0.001568069215863943,0.05102642288208008,0.15038579177856445,9.706093530273437
248678781800500,-0.0036993969697505236,-0.0009438242996111512,0.0003134540456812829,0.04967968444824218,0.15427636947631834,9.7039986038208
248678791772500,-0.0026442527305334806,-0.00148125016130507,0.0017097494564950466,0.042646717071533204,0.1548749198913574,9.693823246765136
248678801744500,-0.0032232238445430994,-0.002445048186928034,0.0009113337146118283,0.04578910675048828,0.16310498809814453,9.705943892669676
248678811716500,-0.0018258632626384497,-0.001606685109436512,0.0007866977830417454,0.047584757995605464,0.1545756446838379,9.713425772857665
248678821688500,-0.0029169602785259485,-0.002662628423422575,0.0001704423048067838,0.03411737365722656,0.15352818145751954,9.706243167877197
248678831660500,-0.0015510249650105834,-0.00173744629137218,-0.00016831177345011383,0.04504091873168945,0.14948796615600585,9.687089554595946
248678841632500,-0.00464641721919179,-0.0034021881874650717,0.0006418218254111707,0.04938040924072265,0.1500865165710449,9.68559317855835
248678851604500,-0.0008322378271259367,-0.0010460896883159876,0.0012141350889578462,0.03920505218505859,0.15936404800415038,9.692326870727538
248678861575500,-0.0024317323695868254,-0.0006668555433861911,0.0020716730505228043,0.050427872467041016,0.16699556579589842,9.694122521972655
248678871547500,-0.0024258734192699194,-0.0027057717088609934,0.0003579288604669273,0.05027823486328125,0.1457470260620117,9.700407301330566
248678881519500,-0.00133850472047925,-0.0011944277212023735,0.0006972155533730984,0.03815758895874023,0.14918869094848633,9.682600426483154
248678891491500,-0.002377137541770935,-0.001526523963548243,0.0024857944808900356,0.044891281127929686,0.15397709426879883,9.706841718292235
248678901463500,-0.0014114753575995564,-0.002005626680329442,-0.00032570460462011397,0.05117606048583984,0.15307926864624022,9.69756418685913
248678911435500,-0.0036695697344839573,-0.0002615224220789969,0.00315957423299551,0.05970540390014648,0.1497872413635254,9.696815998840332
248678921407500,-0.003231213428080082,-0.0017113472567871213,0.000609863898716867,0.040102877807617184,0.16011223602294922,9.700108026123047
248678931379500,-0.0034056503791362047,-0.002235191175714135,0.00014168016787152737,0.0474351203918457,0.15307926864624022,9.69083049468994
248678941351500,-0.0033928672783076763,-0.002859169617295265,0.0019686087034642696,0.05686228942871093,0.1575683967590332,9.685742816162108
248678951323500,-0.0032562471460551023,-0.0020061591640114784,0.00042983421008102596,0.052073886108398436,0.14544775085449219,9.70459715423584
248678961295500,-0.0030178942251950502,-0.000666322885081172,0.0016642092959955335,0.05027823486328125,0.1518821678161621,9.690231944274903
248678971267500,-0.002927879337221384,-0.000642620783764869,0.0002759034978225827,0.04773439559936523,0.1541267318725586,9.69771382446289
248678981239500,-0.0031486554071307182,-0.0017752632265910506,1.304948909819359e-05,0.05386953735351562,0.15382745666503905,9.692326870727538
248678991211500,-0.0021694109309464693,-0.0022034994326531887,0.000958205375354737,0.053121349334716794,0.16175824966430663,9.687239192199707
248679001183500,-0.0031699605751782656,-0.0006135923322290182,-0.00031611722079105675,0.049530046844482416,0.15786767196655271,9.708188456726074
248679011155500,-0.004893824923783541,-0.0005078648100607097,0.0006708502769470215,0.052073886108398436,0.148739778137207,9.692925421142577
248679021127500,-0.0016644756542518735,-0.0028184233233332634,0.0013113404856994748,0.047584757995605464,0.15068506698608397,9.69696563644409
248679031099500,-0.002394448034465313,-0.002668487373739481,7.403588097076863e-05,0.04085106582641601,0.14484920043945312,9.69083049468994
248679041071500,-0.002013349672779441,-0.001853293739259243,0.0004010720585938543,0.049829322052001954,0.15113397979736326,9.692326870727538
248679051043500,-0.0029465213883668184,-0.0033065807074308395,0.0021433120127767324,0.0618003303527832,0.13691840744018555,9.687837742614745
248679061015500,-0.003926032222807407,-0.0010902981739491224,0.0011467571603134274,0.05566518859863281,0.15696984634399413,9.698611650085448
248679070987500,-0.0023734092246741056,-0.0006229133578017354,0.0017321199411526322,0.0469862075805664,0.14694412689208983,9.702801502990722
248679080959500,-0.0017837852938100696,-0.0026109630707651377,0.0008527441532351077,0.053121349334716794,0.15637129592895507,9.695768535614013
248679090931500,-0.0015414375811815262,-0.002758502261713147,0.0015646071406081319,0.053121349334716794,0.15442600708007811,9.68484499053955
248679100903500,-0.0024711471050977707,-0.0015502260066568851,0.0025710156187415123,0.046537294769287106,0.14739303970336914,9.697264911651612
248679110875500,-0.0022626216523349285,-0.00321843009442091,0.0002263686910737306,0.046537294769287106,0.15233108062744138,9.695768535614013
248679120847500,-0.0016258598770946264,-0.0007094661123119295,0.0004005394293926656,0.054468087768554684,0.15637129592895507,9.6917283203125
248679130819500,-0.0016202671686187387,-0.0017507621087133884,0.0011792477453127503,0.0570119270324707,0.15233108062744138,9.706392805480956
248679140791500,-0.003087402554228902,-0.0020088222809135914,0.000303334032651037,0.05850830307006836,0.15352818145751954,9.694721072387695
248679150763500,-0.003123621689155698,-0.0014799186028540134,0.0010751180816441774,0.040102877807617184,0.15517419509887695,9.712976860046385
248679160735500,-0.003442934714257717,-0.0024429175537079573,0.0009627327090129256,0.02977788314819336,0.14215572357177733,9.716119249725342
248679170707500,-0.002058889716863632,-0.0029619678389281034,0.0010820423485711217,0.04129997863769531,0.15038579177856445,9.716119249725342
248679180679500,-0.0038922098465263844,-0.004065847955644131,0.0017925737192854285,0.047584757995605464,0.14963760375976562,9.706841718292235
248679190651500,-0.002724946476519108,-0.0027265443932265043,-0.0006490123341791332,0.050128597259521485,0.14619593887329102,9.687837742614745
248679200623500,-0.002585130510851741,-0.0005494101205840707,-0.0008820389630272985,0.04534019393920898,0.14769231491088866,9.710881933593749
248679210595500,-0.0024567660875618458,-0.0035206989850848913,0.0014066817238926888,0.05357026214599609,0.15158289260864258,9.707589906311034
248679220566500,-0.001751827308908105,-0.002082591876387596,-0.00040613205055706203,0.050427872467041016,0.14185644836425781,9.693673609161376
248679230538500,-0.0022807312197983265,-0.0012245214311406016,0.00042583944741636515,0.05102642288208008,0.14544775085449219,9.687688105010986
248679240510500,-0.0038152446504682302,-0.0026770094409585,0.0010349043877795339,0.0565630142211914,0.148739778137207,9.692775783538817
248679250482500,-0.0028759476263076067,-0.0010990865994244814,-1.4381069377122913e-05,0.046238019561767575,0.15203180541992187,9.688735568237304
248679260454500,-0.002115615177899599,-0.0020698087755590677,0.0013755226973444223,0.050427872467041016,0.14649521408081054,9.69831237487793
248679270426500,-0.002641589380800724,-0.001958488719537854,0.00016777914424892515,0.05401917495727539,0.15861585998535155,9.699359838104247
248679280398500,-0.0015731292078271508,-0.001999235013499856,0.00030546457855962217,0.05237316131591797,0.1505354293823242,9.706542443084716
248679290370500,-0.0028130970895290375,-0.0029518476221710443,0.0004135889175813645,0.04803367080688476,0.15502455749511718,9.682001876068115
248679300342500,-0.0023012375459074974,-0.003213370218873024,9.187905379803851e-05,0.05132569808959961,0.14619593887329102,9.688735568237304
248679310314500,-0.002302835462614894,-0.0011531487107276917,-0.0004588626616168767,0.047285482788085934,0.15472528228759766,9.686640641784667
248679320286500,-0.002797118155285716,-0.003023486817255616,0.0002537992550060153,0.05027823486328125,0.14888941574096679,9.701604402160644
248679330258500,-0.0018879148410633206,-0.003634682158008218,0.000251402409048751,0.05386953735351562,0.15547347030639647,9.702053314971923
248679340230500,-0.0028690234757959843,-0.003341201925650239,0.0018037590198218822,0.049530046844482416,0.1518821678161621,9.699659113311768
248679350202500,-0.0020242687314748764,-0.0027952538803219795,0.0006386260502040386,0.043544542694091797,0.14499883804321287,9.695768535614013
248679360174500,-0.0021145499777048826,-0.0017994979862123728,-0.0004189152386970818,0.05686228942871093,0.1548749198913574,9.701604402160644
248679370146500,-0.0016908409306779504,-0.0025603631511330605,0.0012636699248105288,0.05776011505126953,0.1475426773071289,9.687688105010986
248679380118500,-0.0029667613562196493,-0.002356364857405424,0.0004223773430567235,0.056413376617431635,0.14933832855224607,9.702202952575684
248679390090500,-0.0006372944335453212,-0.0018764632986858487,0.0011432950850576162,0.04399345550537109,0.15098434219360352,9.699808750915526
248679400062500,-0.0019385149935260415,-0.002394980750977993,0.0029292108956724405,0.035464112091064454,0.14739303970336914,9.700108026123047
248679410034500,-0.0038330876268446445,-0.002481799805536866,0.0015835155500099063,0.050727147674560547,0.1505354293823242,9.70444751663208
248679420006500,-0.002120941411703825,-0.00239231763407588,0.0008040083339437842,0.05416881256103515,0.1470937644958496,9.692027595520019
248679429978500,-0.0016727314796298742,-0.0020064255222678185,0.0010703244479373097,0.053121349334716794,0.15592238311767578,9.688137017822266
248679439950500,-0.0027885958552360535,-0.0019491675775498152,0.0015012238873168826,0.04938040924072265,0.15352818145751954,9.704746791839598
248679449922500,-0.0022021678742021322,-0.003308711340650916,0.0011925635626539588,0.048183308410644526,0.13946224670410157,9.703100778198241
248679459893875,-0.0031515848822891712,-0.0011922972043976188,0.0015707324491813779,0.050128597259521485,0.15382745666503905,9.696516723632811
248679469865875,-0.0025366609916090965,-0.0016615461790934205,8.708536915946752e-05,0.058657940673828124,0.15233108062744138,9.69187795791626
248679479837875,-0.0015638081822544336,-0.0013342436868697405,0.0015049523208290339,0.05985504150390625,0.155772745513916,9.686790279388427
248679489809875,-0.0018109495285898447,-0.0023246733471751213,0.0013691311469301581,0.04399345550537109,0.14514847564697264,9.695319622802733
248679499781875,-0.003291400847956538,0.0002133192028850317,0.0009116000146605074,0.05162497329711914,0.14963760375976562,9.694272159576416
248679509753875,-0.003753725439310074,-0.0014295848086476326,0.0005661880713887513,0.05117606048583984,0.14425065002441406,9.69846201248169
248679519725875,-0.0018375811632722616,-0.0020658141002058983,-0.0006942860782146454,0.05401917495727539,0.15113397979736326,9.695618898010252
248679529697875,-0.003579022129997611,-0.002409361768513918,0.00033182985498569906,0.04878185882568359,0.13856442108154296,9.702053314971923
248679539669875,-0.0011997540714219213,-0.0018793927738443017,0.0006556702428497374,0.04997895965576172,0.15637129592895507,9.690980132293701
248679549641875,-0.00239205127581954,-0.002936667762696743,0.0005153216770850122,0.056114101409912104,0.16130933685302734,9.701005851745604
248679559612875,-0.0013430321123450994,-0.0029550434555858374,0.00025486451340839267,0.051774610900878905,0.1452981132507324,9.712527947235106
248679569584875,-0.002953978255391121,-0.0030980552546679974,0.0007640608819201589,0.043245267486572266,0.14125789794921875,9.714922148895264
248679579556875,-0.0024807346053421497,-0.002406432293355465,0.0006303702248260379,0.042048166656494135,0.14694412689208983,9.683498252105712
248679589528875,-0.0027262780349701643,-0.002621083054691553,0.00014620754518546164,0.04878185882568359,0.15951368560791016,9.697264911651612
248679599500875,-0.002644785214215517,-0.0024437166284769773,0.0017542241839691997,0.04548983154296875,0.14963760375976562,9.707290631103515
248679609472875,-0.003736681304872036,-0.0013020194601267576,0.0009387642494402826,0.050727147674560547,0.14649521408081054,9.688735568237304
248679619444875,-0.003177683800458908,-0.002554770326241851,0.001692705205641687,0.056114101409912104,0.15263035583496093,9.702352590179443
248679629416875,-0.0022572954185307026,-0.0003904194163624197,0.00018855179951060563,0.04399345550537109,0.16310498809814453,9.692326870727538
248679639388875,-0.001957689644768834,-0.0029787456151098013,0.0009707222343422472,0.045938744354248044,0.15682020874023436,9.705494979858399
248679649360875,-0.0017566210590302944,-0.002305232221260667,-1.8375811123405583e-05,0.044592005920410155,0.15068506698608397,9.699808750915526
248679659332875,-0.0033816818613559008,-0.001446362817659974,9.560748003423214e-05,0.03950432739257812,0.15023615417480468,9.707889181518555
248679669304875,-0.0023552996572107077,-0.00155288923997432,0.0013877731980755925,0.04713584518432617,0.15906477279663084,9.701305126953125
248679679276875,-4.340952364145778e-05,-0.0012575446162372828,-0.00020133497309871018,0.049829322052001954,0.14544775085449219,9.700706576538085
248679689248875,-0.0029198897536844015,-0.0017057546647265553,-0.00028282770654186606,0.046238019561767575,0.15083470458984374,9.695020347595214
248679699220875,-0.0032115059439092875,-0.0019371833186596632,0.0012261193478479981,0.053420624542236325,0.15263035583496093,9.699659113311768
248679709192875,-0.0014306501252576709,-0.0030716899782419205,0.002585396869108081,0.04339490509033203,0.14215572357177733,9.704896429443359
248679719164875,-0.0023963123094290495,-0.002590723102912307,0.002111886627972126,0.05731120223999023,0.15023615417480468,9.705494979858399
248679729136875,-0.0011507519520819187,-0.0016176040517166257,0.0010069411946460605,0.04189852905273437,0.14260463638305662,9.692476508331298
248679739108875,-0.002122006844729185,-0.001894839107990265,-0.00027856664382852614,0.03890577697753906,0.1571194839477539,9.69083049468994
248679749080875,-0.0030061763245612383,-0.002389121800661087,-0.00026844663079828024,0.043245267486572266,0.14245499877929688,9.692925421142577
248679759052875,-0.0029289445374161005,-0.0025334651581943035,0.0010098706698045135,0.047584757995605464,0.14335282440185546,9.69187795791626
248679769024875,-0.001924932817928493,-0.0034293525386601686,0.0017193368403241038,0.033818098449707026,0.15637129592895507,9.708338094329834
248679778996875,-0.003123621689155698,-0.0020844561513513327,0.00036618465674109757,0.04713584518432617,0.1580173095703125,9.69741454925537
248679788968875,-0.0013755226973444223,-0.001975532853975892,-0.0009398295660503209,0.03696048812866211,0.1514332550048828,9.680355862426758
248679798940875,-0.0025859293527901173,-0.0024085629265755415,0.002748914761468768,0.040402153015136714,0.15113397979736326,9.683797527313232
248679808912875,-0.0017662084428593516,-0.002264752285555005,0.0007028082036413252,0.047285482788085934,0.14918869094848633,9.69756418685913
248679818884875,-0.0021291973534971476,-0.003120425855740905,0.00025060345069505274,0.049829322052001954,0.15083470458984374,9.702651865386962
248679828856875,-0.00361790438182652,-0.0021576930303126574,0.00047084689140319824,0.04713584518432617,0.14829086532592772,9.692925421142577
248679838828875,3.1158982892520726e-05,-0.0026559706311672926,0.001534779672510922,0.04863222122192382,0.1500865165710449,9.692177233123779
248679848800875,-0.0012831110507249832,-0.002238120650872588,0.0003294330381322652,0.055365913391113276,0.14006079711914063,9.704297879028319
248679858772875,-0.001463673310354352,-0.0021635519806295633,0.0007363640470430255,0.03860650177001953,0.1548749198913574,9.710881933593749
248679868744875,-0.0035960664972662926,-0.0015563513152301311,0.001201884588226676,0.03725976333618164,0.1541267318725586,9.69771382446289
248679878716875,-0.0028445222415030003,-0.002680737990885973,0.001026382320560515,0.04159925384521484,0.155772745513916,9.704746791839598
248679888688875,-0.0024381240364164114,-0.0032562471460551023,-5.4861116950633004e-05,0.046537294769287106,0.16879121704101563,9.694571434783935
248679898660875,-0.002412823960185051,-0.0026378610637038946,0.0007416903390549123,0.044891281127929686,0.13901333389282225,9.69771382446289
248679908632875,-0.001588575541973114,-0.0019299928098917007,0.0013632721966132522,0.05057751007080078,0.14469956283569335,9.688585930633545
248679918604875,-0.002438656520098448,-0.001784850494004786,-0.000601075473241508,0.048183308410644526,0.14739303970336914,9.69756418685913
248679928575875,-0.0009094694978557527,-0.0015081481542438269,0.0019094864837825298,0.05162497329711914,0.1375169578552246,9.688585930633545
248679938547875,-0.0021137509029358625,-0.0018692727899178863,-0.00029774141148664057,0.047884033203124995,0.1548749198913574,9.694721072387695
248679948519875,-0.0009837717516347766,-0.0027632960118353367,0.001716673607006669,0.042048166656494135,0.14021043472290037,9.704297879028319
248679958491875,-0.0026378610637038946,-0.0013321131700649858,0.0016354472609236836,0.03950432739257812,0.15831658477783203,9.690381581878661
248679968463875,-0.0021433120127767324,-0.003194994293153286,0.00020586235041264445,0.043245267486572266,0.15263035583496093,9.699958388519287
248679978435875,-0.0021379857789725065,-0.001995772821828723,0.0007925567333586514,0.048183308410644526,0.15352818145751954,9.686191728973387
248679988407875,-0.001698564155958593,-0.002633600030094385,0.00017204020696226507,0.04997895965576172,0.15831658477783203,9.699509475708007
248679998379875,-0.002956375014036894,-0.0016492956783622503,8.628641808172688e-05,0.05431845016479492,0.14814122772216795,9.699210200500488
248680008351875,-0.002139050979167223,-0.0032431974541395903,0.0019299928098917007,0.053121349334716794,0.1575683967590332,9.701155489349365
248680018323875,-0.0015100123127922416,-0.0023347933311015368,0.003364637726917863,0.04474164352416992,0.16086042404174802,9.692476508331298
248680028295875,-0.0024021712597459555,-0.0031217574141919613,-0.00038296254933811724,0.046537294769287106,0.1518821678161621,9.687388829803465
248680038267875,-0.00398728484287858,-0.002046372974291444,0.0004138552176300436,0.047884033203124995,0.1514332550048828,9.695469260406494
248680048239875,-0.0031345405150204897,-0.001582982949912548,0.0005701828049495816,0.061650692749023434,0.1518821678161621,9.701754039764404
248680058211875,-0.003052248852327466,-0.0004524710529949516,0.0006711165769957006,0.047285482788085934,0.15098434219360352,9.698761287689209
248680068183875,-0.0017496967921033502,-0.0018024274613708258,0.0017297230660915375,0.04504091873168945,0.1575683967590332,9.693972884368895
248680078155875,-0.001865011639893055,-0.002936401404440403,0.0006609965930692852,0.047584757995605464,0.14963760375976562,9.689184481048583
248680088127875,-0.00180881901178509,-0.002216282533481717,0.001326786819845438,0.042646717071533204,0.14888941574096679,9.688585930633545
248680098099875,-0.0025995115283876657,-0.0016966998809948564,0.00024714134633541107,0.04234744186401367,0.14724340209960937,9.70369932861328
248680108071875,-0.002798982197418809,-0.0014895059866830707,0.0016945693641901016,0.04878185882568359,0.1589151351928711,9.685443540954589
248680118043875,-0.0020719394087791443,-0.0027750139124691486,0.0013012205017730594,0.045938744354248044,0.15861585998535155,9.686491004180908
248680128015875,-0.0019030949333682656,-0.0017188041238114238,0.001505751279182732,0.046537294769287106,0.15173253021240232,9.68529390335083
248680137987875,-0.002805373864248395,-0.002638926263898611,0.0010990865994244814,0.04129997863769531,0.1518821678161621,9.70968483276367
248680147959875,-0.003781156148761511,-0.0026192190125584602,0.0004146541759837419,0.05491700057983398,0.15786767196655271,9.700257663726806
248680157931875,-0.001181111903861165,-0.0014343785587698221,0.0005797701887786388,0.04369418029785156,0.14514847564697264,9.694721072387695
248680167903875,-0.0008884305134415627,-0.003087402554228902,0.0003134540456812829,0.047884033203124995,0.14784195251464843,9.699958388519287
248680177875875,-0.004289020784199238,-0.0016737966798245907,0.00047643951256759465,0.03396773605346679,0.15696984634399413,9.695319622802733
248680187847875,-0.0018287927377969027,-0.0020010992884635925,0.0009361011325381696,0.03845686416625976,0.15337854385375976,9.690381581878661
248680197819875,-0.0027800737880170345,-0.002546780975535512,0.0007065366371534765,0.048931496429443354,0.14499883804321287,9.703848966217041
248680207791875,-0.0035388083197176456,-0.0017302557826042175,0.0014106763992458582,0.05357026214599609,0.1466448516845703,9.702651865386962
248680217763875,-0.003974767867475748,-0.0011859056539833546,0.00126766471657902,0.04399345550537109,0.14469956283569335,9.693972884368895
248680227735875,-0.0013310478534549475,-0.0014743260107934475,-0.00035979304811917245,0.03411737365722656,0.15203180541992187,9.707140993499756
248680237707875,-0.0016370450612157583,-0.0019976370967924595,0.0022977753542363644,0.05237316131591797,0.1527799934387207,9.693224696350097
248680247679875,-0.0020655477419495583,-0.0017398431664332747,0.0005960154230706394,0.041000703430175776,0.1444002876281738,9.695469260406494
248680257651875,-0.002770752878859639,-0.0036703685764223337,0.0012937636347487569,0.04219780426025391,0.15083470458984374,9.706392805480956
248680267623875,-0.0038780951872467995,-0.0016170714516192675,0.001609348226338625,0.049829322052001954,0.1623568000793457,9.688885205841064
248680277595875,-0.002784601179882884,-0.0018239989876747131,0.0003760383406188339,0.04878185882568359,0.15427636947631834,9.690082306671142
248680287567875,-0.002376604825258255,-0.0031790153589099646,0.00021544973424170166,0.04504091873168945,0.15113397979736326,9.695319622802733
248680297539875,-0.0023901870008558035,-0.002388589084148407,0.0012740562669932842,0.04668693237304687,0.15517419509887695,9.696067810821532
248680307511875,-0.003363838652148843,-0.0014474280178546906,0.00010253170330543071,0.05282207412719726,0.15098434219360352,9.694421797180174
248680317483875,-0.002746784361079335,-0.00301762786693871,0.0019459717441350222,0.05820902786254883,0.15068506698608397,9.702951140594482
248680327455875,-0.0006804376607760787,-0.0024431839119642973,-0.00027856664382852614,0.04773439559936523,0.14395137481689452,9.696217448425292
248680337427875,-0.0035595810040831566,-0.0021827267482876778,0.0010388991795480251,0.04608838195800781,0.14829086532592772,9.687239192199707
248680347399875,-0.004853877238929272,-0.003064233111217618,0.0012261193478479981,0.04967968444824218,0.1541267318725586,9.701305126953125
248680357371875,-0.002329467097297311,-0.0025180187076330185,0.0018258632626384497,0.04683656997680664,0.15592238311767578,9.696815998840332
248680367343875,-0.004306064918637276,-0.003031476167961955,0.0017084177816286683,0.04474164352416992,0.14918869094848633,9.695020347595214
248680377315875,-0.0007717840489931405,-0.0022506373934447765,0.00025246766745112836,0.04563946914672851,0.15637129592895507,9.682301151275635
248680387287875,-0.002153698354959488,-0.0019145464757457376,0.0011598066193982959,0.05776011505126953,0.155772745513916,9.688735568237304
248680397259875,-0.0031936627347022295,0.0002580603177193552,0.000984570593573153,0.04713584518432617,0.14918869094848633,9.695469260406494
248680407230875,-0.001341966912150383,-0.0022189458832144737,0.0014114753575995564,0.04144961624145507,0.1479915901184082,9.698910925292969
248680417202875,-0.002014415105804801,-0.002493251347914338,-0.00020905814017169178,0.0430956298828125,0.15532383270263672,9.69127940750122
248680427174875,-0.0013978932984173298,-0.002064748667180538,-6.0986389144090936e-05,0.05835866546630859,0.1479915901184082,9.697115274047851
248680437146875,-0.002091646660119295,-0.002235191175714135,0.0009443568997085094,0.04144961624145507,0.1610100616455078,9.700706576538085
248680447118875,-0.0022799321450293064,-0.00162426196038723,0.0009592706337571144,0.051475335693359374,0.1575683967590332,9.702951140594482
248680457091750,-0.002596848411485553,-0.0016250609187409282,0.0006593986763618886,0.051774610900878905,0.15936404800415038,9.696815998840332
248680467063750,-0.002644518855959177,-0.0025097629986703396,-0.0006311691831797361,0.04504091873168945,0.15023615417480468,9.702502227783203
248680477035750,-0.0014008227735757828,-0.0023587618488818407,0.00045060686534270644,0.046537294769287106,0.1632546257019043,9.685742816162108
248680487007750,-0.002972354181110859,-0.0017222663154825568,0.001642637769691646,0.06284779357910156,0.1479915901184082,9.693374333953857
248680496979750,-0.0036618465092033148,-0.0029523803386837244,3.6751622246811166e-05,0.044592005920410155,0.1518821678161621,9.703250415802001
248680506951750,-0.0029324067290872335,-0.0013752563390880823,0.0031941954512149096,0.05252279891967773,0.1575683967590332,9.707589906311034
248680516923750,-0.000904409505892545,-0.0032658344134688377,0.0006641923682764173,0.060603229522705075,0.14544775085449219,9.6794580368042
248680526895750,-0.004357464145869017,-0.002549444092437625,0.0005427522119134665,0.03815758895874023,0.14769231491088866,9.693823246765136
248680536867750,-0.0023062974214553833,-0.0029089709278196096,0.0006982808117754757,0.0474351203918457,0.14903905334472656,9.69771382446289
248680546839750,-0.0035513252951204777,-0.0023582291323691607,-0.0004956142511218786,0.048183308410644526,0.1548749198913574,9.701155489349365
248680556811750,-0.00180881901178509,-0.0016391756944358349,0.0004830974212381989,0.04683656997680664,0.15068506698608397,9.697264911651612
248680566783750,-0.0028810077346861362,-0.0029465213883668184,0.002234924817457795,0.047285482788085934,0.15233108062744138,9.686042091369629
248680576755750,-0.0021723404061049223,-0.002281796419993043,0.0018554243724793196,0.07167641220092773,0.14679448928833008,9.68529390335083
248680586727750,-0.002837864449247718,-0.0033995250705629587,-0.0003605920064728707,0.04444236831665039,0.15337854385375976,9.696666361236572
248680596699750,-0.002657035831362009,-0.0021603561472147703,0.00152306177187711,0.04189852905273437,0.1518821678161621,9.70444751663208
248680606671750,-0.0029760824982076883,-0.001955026527866721,0.0006777744856663048,0.04908113403320312,0.15113397979736326,9.696067810821532
248680616643750,-0.002335858531296253,-0.002377936616539955,-0.0002407497668173164,0.045938744354248044,0.14888941574096679,9.71073229598999
248680626615750,-0.0011952266795560718,-0.0016445019282400608,0.00017017599020618945,0.049829322052001954,0.14903905334472656,9.709535195159912
248680636587750,-0.002953978255391121,-0.0028999161440879107,-0.0006056028068996966,0.05581482620239257,0.14814122772216795,9.690531219482422
248680646559750,-0.0024985778145492077,-0.0026636936236172915,0.0011914982460439205,0.037409400939941405,0.16295535049438475,9.695020347595214
248680656531750,-0.0033755565527826548,-0.0013821806060150266,2.3169501218944788e-05,0.04219780426025391,0.14739303970336914,9.707589906311034
248680666503750,-0.0041646515019237995,-0.002110288944095373,-0.0006141249323263764,0.050727147674560547,0.14993687896728514,9.70459715423584
248680676475750,-0.0026881948579102755,-0.002439455594867468,0.00045833003241568804,0.04608838195800781,0.1562216583251953,9.687089554595946
248680686447750,-0.002788063371554017,-0.002231462625786662,0.00046924897469580173,0.04713584518432617,0.14769231491088866,9.700856214141846
248680696419750,-0.0029055087361484766,-0.001389104756526649,-0.00012010856153210625,0.051774610900878905,0.14589666366577148,9.702502227783203
248680706391750,-0.0026085663121193647,-0.0013025520602241158,-0.000499875342939049,0.04713584518432617,0.14559738845825196,9.69756418685913
248680716363750,-0.002516953507438302,-0.0011579424608498812,-0.0010772485984489322,0.04563946914672851,0.1610100616455078,9.683198976898193
248680726335750,-0.0018194715958088636,-0.0018844527658075094,0.0006929545197635889,0.05521627578735351,0.14454992523193358,9.69068085708618
248680736307750,-0.0008404936525039375,-0.0011121360585093498,-0.0003110571997240186,0.049530046844482416,0.1457470260620117,9.705494979858399
248680746279750,-0.0023377228062599897,-0.0023824640084058046,0.00013555490295402706,0.04279635467529297,0.14948796615600585,9.695169985198975
248680756251750,-0.002700977958738804,-0.001511343871243298,-0.0008548747282475233,0.04444236831665039,0.15831658477783203,9.693224696350097
248680766223750,-0.0016708672046661377,-0.0022027005907148123,0.0001816275907913223,0.05102642288208008,0.15352818145751954,9.706392805480956
248680776195750,-0.002124669961631298,-0.001990979304537177,0.0007653924985788763,0.049530046844482416,0.15607202072143553,9.695918173217773
248680786167750,-0.00341603672131896,-0.0016029566759243608,-0.0006420881254598498,0.04144961624145507,0.15322890625,9.695618898010252
248680796139750,-0.0024234766606241465,-0.0012026835465803742,0.0015464976895600557,0.05282207412719726,0.16130933685302734,9.705494979858399
248680806111750,-0.0029001825023442507,-0.0008008125587366521,0.002062085550278425,0.03950432739257812,0.15352818145751954,9.698910925292969
248680816083750,-0.0015632755821570754,-0.000830107310321182,0.0008620652370154858,0.04444236831665039,0.1466448516845703,9.689783031463623
248680826055750,-0.0012743226252496243,-0.0032003207597881556,0.00096086849225685,0.048183308410644526,0.1497872413635254,9.692626145935058
248680836027750,-0.003974501509219408,-0.002147839404642582,0.0008263788768090308,0.05087678527832031,0.15397709426879883,9.696516723632811
248680845999750,-0.0023699470330029726,-0.002615490462630987,-7.80306218075566e-05,0.05401917495727539,0.14559738845825196,9.689783031463623
248680855971750,-0.0028674255590885878,-0.002207760466262698,0.0009811085183173418,0.03815758895874023,0.14544775085449219,9.694122521972655
248680865943750,-0.0035417377948760986,-0.0011800467036664486,0.0009038768475875258,0.04878185882568359,0.16445172653198242,9.699659113311768
248680875915750,-0.0019315907265990973,-0.0014855111949145794,0.00034408041392453015,0.04638765716552734,0.15547347030639647,9.69786346206665
248680885887750,-0.002296177437528968,-0.001371794263832271,0.0015736619243398309,0.05416881256103515,0.13811550827026367,9.68454571533203
248680895859750,-0.0018319884547963738,-0.003063700394704938,0.0013496900210157037,0.05401917495727539,0.1592144104003906,9.701604402160644
248680905831750,-0.0019739349372684956,-0.002404035534709692,0.0010998855577781796,0.049829322052001954,0.16011223602294922,9.70459715423584
248680915803750,-0.0030120352748781443,-0.0016293219523504376,0.0005720470217056572,0.04219780426025391,0.15741875915527342,9.706542443084716
248680925775750,-0.002576075727120042,-0.0009286442655138671,0.0006213154993019998,0.044891281127929686,0.14948796615600585,9.705943892669676
248680935747750,-0.0036171053070575,-0.0022205437999218702,0.0011848403373733163,0.04967968444824218,0.14395137481689452,9.695020347595214
248680945719750,-0.002046106616035104,-0.0024684839881956577,0.0011283813510090113,0.05237316131591797,0.14679448928833008,9.690082306671142
248680955691750,-0.0026229473296552896,-0.0014034858904778957,-0.0007715177489444613,0.05596446380615234,0.15786767196655271,9.688585930633545
248680965663750,-0.0035169704351574183,-0.00213638786226511,0.0008207862265408039,0.05237316131591797,0.1619078872680664,9.688137017822266
248680975635750,-0.002487392397597432,-0.0019443739438429475,-2.370213405811228e-05,0.0474351203918457,0.15592238311767578,9.694571434783935
248680985607750,-0.003026416292414069,-0.0014303837670013309,0.0022690133191645145,0.04997895965576172,0.15203180541992187,9.696666361236572
248680995579750,-0.0025869945529848337,-0.0018543590558692813,0.001981658162549138,0.042945992279052735,0.14559738845825196,9.689633393859863
248681005551750,-0.0038605183362960815,-0.002984072081744671,0.0008287757518701255,0.044292730712890624,0.15472528228759766,9.696217448425292
248681015523750,-0.0025806031189858913,-0.0019536949694156647,8.841694943839684e-05,0.04414309310913086,0.15906477279663084,9.699808750915526
248681025495750,-0.0012998889433220029,-0.0009675264009274542,0.001543568097986281,0.04638765716552734,0.14993687896728514,9.692775783538817
248681035467750,-0.003172357566654682,-0.001984587637707591,0.0005992112564854324,0.04578910675048828,0.1470937644958496,9.684246440124511
248681045439750,-0.0023547669406980276,-0.0024343954864889383,0.0003611246356740594,0.05297171173095703,0.15128361740112303,9.698761287689209
248681055411750,-0.002865028567612171,-0.0030951257795095444,0.0012442287988960743,0.05910685348510742,0.15652093353271485,9.70444751663208
248681065383750,-0.0015984292840585113,-0.002276203827932477,-7.909588020993397e-05,0.05776011505126953,0.1470937644958496,9.71013374557495
248681075355750,-0.00327275856398046,-0.002433863002806902,0.001272990950383246,0.055365913391113276,0.1500865165710449,9.69741454925537
248681085327750,-0.002764627570286393,-0.0012202603975310922,0.000589091214351356,0.05327098693847656,0.15068506698608397,9.705494979858399
248681095299750,-0.002122006844729185,-0.0024775387719273567,-0.0008817726047709584,0.03815758895874023,0.1475426773071289,9.693224696350097
248681105271750,-0.001287904684431851,-0.002058889716863632,7.190534961409867e-05,0.044891281127929686,0.14125789794921875,9.700407301330566
248681115243750,-0.002950516063719988,-0.0014743260107934475,0.002290318487212062,0.043544542694091797,0.1566705711364746,9.693673609161376
248681125215750,-0.002141980454325676,-0.002867958042770624,0.0006420881254598498,0.037708676147460936,0.1527799934387207,9.699060562896728
248681135187750,-0.002269279444590211,-0.001574194524437189,-0.00037257623625919223,0.04938040924072265,0.1566705711364746,9.689483756256102
248681145159750,-0.0001960086519829929,-0.0019217369845137,0.001654355670325458,0.04444236831665039,0.143652099609375,9.69127940750122
248681155131750,-0.002837331732735038,-0.0021260015200823545,0.0013579458463937044,0.050427872467041016,0.15696984634399413,9.686939916992188
248681165103750,-0.003885019337758422,-0.0026429209392517805,0.0013438310706987977,0.03980360260009765,0.14769231491088866,9.690082306671142
248681175075750,-0.002290851203724742,-0.0005251753609627485,0.0004719121498055756,0.05162497329711914,0.14514847564697264,9.676016371917724
248681185047750,-0.0018783274572342634,-0.0027028422337025404,0.0007025419035926461,0.04848258361816406,0.15442600708007811,9.693523971557617
248681195019750,-0.004555337131023407,-0.0022383867762982845,3.781688792514615e-05,0.035464112091064454,0.1518821678161621,9.695469260406494
248681204991750,-0.003070358419790864,-0.0013515542959794402,0.0002591255761217326,0.0430956298828125,0.1571194839477539,9.699808750915526
248681214963750,-0.0032589102629572153,-0.0022354573011398315,0.0010279801208525896,0.043245267486572266,0.1566705711364746,9.705644617462157
248681224935750,-0.001555818715132773,-0.002514556748792529,0.0009776464430615306,0.04504091873168945,0.14484920043945312,9.696067810821532
248681234907750,-0.002549976808950305,-0.00264744833111763,-0.0010109359864145517,0.04414309310913086,0.14080898513793944,9.711031571197509
248681244879750,-0.001683650421909988,-0.0007350324303843081,0.0008346347021870315,0.04444236831665039,0.15352818145751954,9.702202952575684
248681254851750,-0.002814695006236434,-0.0017600831342861056,0.000874582096002996,0.042945992279052735,0.15906477279663084,9.683947164916992
248681264823750,-0.0022628880105912685,-0.0011608719360083342,-0.001116130850277841,0.04534019393920898,0.15397709426879883,9.69187795791626
248681274795750,-0.0038402783684432507,-0.0029555761720985174,0.0019028285751119256,0.035464112091064454,0.15233108062744138,9.688137017822266
248681284767750,-0.002912166528403759,-0.0009076052810996771,0.0014737932942807674,0.03845686416625976,0.15696984634399413,9.706841718292235
248681294739750,-0.0038032603915780783,-0.0013068130938336253,0.001460743835195899,0.055066638183593745,0.14739303970336914,9.703100778198241
248681304711750,-0.003953995183110237,-0.0014594122767448425,0.0020844561513513327,0.04608838195800781,0.1500865165710449,9.696666361236572
248681314683750,-0.002573412610217929,-0.0029465213883668184,0.0007099987124092877,0.0474351203918457,0.14918869094848633,9.69068085708618
248681324655750,-0.0022003035992383957,-0.0027510453946888447,0.0005869606975466013,0.052073886108398436,0.1427542739868164,9.708038819122313
248681334627750,-0.00207726564258337,-0.0020295949652791023,0.0015033544041216373,0.048183308410644526,0.14679448928833008,9.701305126953125
248681344599750,-0.0028522454667836428,-0.0015329155139625072,0.0010359697043895721,0.04713584518432617,0.15113397979736326,9.690231944274903
248681354571750,-0.003498328384011984,-0.002118811011314392,0.00045566685730591416,0.04384381790161133,0.14933832855224607,9.688137017822266
248681364543750,-0.002493517706170678,-0.002130528911948204,-0.0003230414295103401,0.046238019561767575,0.14245499877929688,9.685892453765868
248681374515750,-0.0018306568963453174,-0.0008034756756387651,0.001606152392923832,0.048931496429443354,0.1475426773071289,9.692027595520019
248681384487750,-0.0007882956997491419,-0.004285026341676712,0.002353169023990631,0.042646717071533204,0.143652099609375,9.693823246765136
248681394459750,-0.0008823052630759776,-0.002175003755837679,2.5566347176209092e-05,0.04878185882568359,0.14888941574096679,9.699659113311768
248681404431750,-0.0022975089959800243,-0.0016951019642874599,0.0003528688393998891,0.049530046844482416,0.1614589744567871,9.694122521972655
248681414403750,-0.001802960061468184,-0.0033835461363196373,-9.374327055411413e-05,0.0522235237121582,0.16639701538085935,9.703848966217041
248681424375750,-0.0016247945604845881,-0.0031973912846297026,0.0002665824140422046,0.03965396499633789,0.15427636947631834,9.696067810821532
248681434347750,-0.001427987008355558,-0.0029089709278196096,-0.0006498112925328314,0.04144961624145507,0.15038579177856445,9.68469535293579
248681444319750,-0.004373176954686642,-0.0020306603983044624,0.0008010788587853312,0.05880757827758789,0.1452981132507324,9.68514426574707
248681454291750,-0.002558232517912984,-0.0017718010349199176,0.002372077666223049,0.05252279891967773,0.15233108062744138,9.688735568237304
248681464263500,-0.0038543930277228355,-0.002095375210046768,0.00018109494703821838,0.05027823486328125,0.15218144302368164,9.693673609161376
248681474235500,-0.0023992417845875025,-0.0035151063930243254,0.00029108350281603634,0.047884033203124995,0.1527799934387207,9.689633393859863
248681484207500,-0.002275404753163457,-0.001888980157673359,0.00041784998029470444,0.04773439559936523,0.1571194839477539,9.706542443084716
248681494180500,-0.002261023735627532,-0.0022801985032856464,0.0014729943359270692,0.05297171173095703,0.1623568000793457,9.705195704650878
248681504152500,-0.0024402544368058443,-0.0030575753189623356,0.0019520970527082682,0.05057751007080078,0.15128361740112303,9.68469535293579
248681514124500,-0.0009781790431588888,-0.0018996327416971326,0.00096113485051319,0.0383072265625,0.15517419509887695,9.70968483276367
248681524096500,-0.0034029872622340918,-0.0016058861510828137,0.00039734362508170307,0.05252279891967773,0.15652093353271485,9.694122521972655
248681534068500,-0.0017590179340913892,-0.002633600030094385,0.0020013656467199326,0.03980360260009765,0.15906477279663084,9.689483756256102
248681544040500,-0.004193679895251989,-0.0012695288751274347,0.0009720537927933037,0.04578910675048828,0.148739778137207,9.694122521972655
248681554012500,-0.003078614128753543,-0.0024341291282325983,0.001901230658404529,0.051774610900878905,0.15158289260864258,9.699509475708007
248681563984500,-0.0008199872681871057,-0.002972087822854519,0.0019419770687818527,0.04908113403320312,0.13856442108154296,9.69157868270874
248681573956500,-0.005437642335891724,-0.0005925533478148282,0.00039414784987457097,0.05162497329711914,0.15233108062744138,9.70354969100952
248681583928500,-0.0031380027066916227,-0.0007667240570299327,0.00048176583368331194,0.04474164352416992,0.15128361740112303,9.70414824142456
248681593900500,-0.001651692553423345,-0.0018612833227962255,0.0008559399866499007,0.03666121292114258,0.16086042404174802,9.702801502990722
248681603872500,-0.002442118711769581,-0.0029499835800379515,0.001900964416563511,0.04713584518432617,0.15592238311767578,9.693972884368895
248681613844500,-0.0036573191173374653,-0.002123604528605938,0.0005366269615478814,0.05805939025878906,0.14859014053344727,9.690531219482422
248681623816500,-0.0030799456872045994,-0.001023452845402062,0.001615473534911871,0.03696048812866211,0.15068506698608397,9.683498252105712
248681633788500,-0.0016141419764608145,-0.0011704593198373914,0.002576608443632722,0.054767362976074214,0.14604630126953125,9.705195704650878
248681643760500,-0.0028826056513935328,-0.00273133791051805,-0.00038402783684432507,0.055066638183593745,0.1610100616455078,9.686341366577148
248681653732500,-0.002779008587822318,-0.0016391756944358349,0.0011733887949958444,0.05297171173095703,0.14619593887329102,9.695319622802733
248681663704500,-0.0031523837242275476,-0.001728657865896821,0.0009675264009274542,0.056114101409912104,0.16460136413574217,9.687837742614745
248681673676500,-0.0034999263007193804,-0.0012098740553483367,0.0008833705214783549,0.0618003303527832,0.1527799934387207,9.685443540954589
248681683648500,-0.0041223070584237576,-0.0029433255549520254,0.0015062838792800903,0.039354689788818356,0.15652093353271485,9.698761287689209
248681693620500,-0.002386458683758974,-0.002216548891738057,-0.0009243832319043577,0.041000703430175776,0.14006079711914063,9.700108026123047
248681703592500,-0.0023523701820522547,-0.0021291973534971476,0.0016053534345701337,0.03950432739257812,0.14305354919433594,9.696815998840332
248681713564500,-0.0023899206425994635,-0.0023284016642719507,0.0022394522093236446,0.048183308410644526,0.15547347030639647,9.697264911651612
248681723536500,-0.003709516953676939,-0.0018676748732104897,0.0012367720482870936,0.04414309310913086,0.143652099609375,9.702053314971923
248681733508500,-0.0027827369049191475,-0.000556600687559694,0.0012780509423464537,0.04848258361816406,0.15218144302368164,9.705794255065918
248681743480500,-0.0013547500129789114,-0.0017776599852368236,0.0014426343841478229,0.05027823486328125,0.14484920043945312,9.702202952575684
248681753452500,-0.0018495653057470918,-0.0021662150975316763,-0.00036618465674109757,0.04773439559936523,0.15038579177856445,9.69157868270874
248681763424500,-0.0021936458069831133,-0.0014154701493680477,0.0009960222523659468,0.047285482788085934,0.14050970993041992,9.695020347595214
248681773396500,-0.002669286448508501,-0.002532399957999587,0.00023995080846361816,0.0383072265625,0.15098434219360352,9.699060562896728
248681783368500,-0.001600559800863266,-0.0035750274546444416,8.57537888805382e-05,0.047884033203124995,0.14903905334472656,9.699359838104247
248681793340500,-0.00035686357296071947,-0.002757969545200467,0.001776328426785767,0.04863222122192382,0.16026187362670896,9.698162737274169
248681803312500,-0.0014476943761110306,-0.0017033577896654606,0.0012463594321161509,0.049829322052001954,0.1589151351928711,9.693374333953857
248681813284500,-0.001710548298433423,-0.0015486282063648105,0.0003757720405701548,0.047285482788085934,0.148739778137207,9.687837742614745
248681823256500,-0.003466104157269001,-0.0021752698812633753,0.000179230744834058,0.05027823486328125,0.1545756446838379,9.700108026123047
248681833228500,-0.0025561018846929073,-0.0023454460315406322,0.0013646037550643086,0.044891281127929686,0.1589151351928711,9.695469260406494
248681843200500,-0.0027566379867494106,-0.0027379959356039762,0.0017816547770053148,0.03725976333618164,0.14649521408081054,9.68469535293579
248681853172500,-0.0014791196445003152,-0.003306048223748803,0.0007249124464578927,0.03995324020385742,0.15532383270263672,9.698910925292969
248681863144500,-0.0017867147689685225,-0.0016639430541545153,0.0021544971968978643,0.04608838195800781,0.148739778137207,9.690531219482422
248681873116500,-0.0038189729675650597,-0.0020570256747305393,-0.00014088122406974435,0.05102642288208008,0.1527799934387207,9.696516723632811
248681883089500,-0.003306314582005143,-0.0011507519520819187,0.0008516788948327303,0.055365913391113276,0.15068506698608397,9.702352590179443
248681893061500,-0.0036932716611772776,-0.003094060579314828,0.0015994944842532277,0.05132569808959961,0.14634557647705076,9.692626145935058
248681903033500,-0.00304692261852324,-0.002495914464816451,0.0021781993564218283,0.050128597259521485,0.14694412689208983,9.700556938934326
248681913005500,-0.002861832967028022,-0.002210689941421151,0.0014913701452314854,0.044891281127929686,0.15113397979736326,9.699808750915526
248681922977500,-0.0005398227367550135,-0.0018359832465648651,0.0009688580175861716,0.03995324020385742,0.17133505630493162,9.693823246765136
248681932949500,-0.002909503411501646,-0.0029795446898788214,0.0011851066956296563,0.050128597259521485,0.15786767196655271,9.69801309967041
248681942921500,-0.0019313243683427572,-0.0012918994762003422,0.0013347762869670987,0.050427872467041016,0.14724340209960937,9.686491004180908
248681952893500,-0.0017976337112486362,-0.002910036128014326,0.0013350426452234387,0.051475335693359374,0.14499883804321287,9.700706576538085
248681962865500,-0.0014410364674404263,-0.0009265137487091124,0.0007499461644329131,0.047884033203124995,0.15427636947631834,9.683198976898193
248681972837500,-0.0018753979820758104,-0.0009893643436953425,0.0010277138790115714,0.053719899749755856,0.15248071823120116,9.682301151275635
248681982809500,-0.002478337613865733,-0.002683401107788086,0.0021137509029358625,0.056413376617431635,0.15352818145751954,9.687837742614745
248681992781500,-0.002802977105602622,-0.0022770026698708534,0.0006492786924354732,0.039055414581298825,0.15981296081542967,9.71058265838623
248682002753500,-0.0015494271647185087,-0.0006386260502040386,0.00030120351584628224,0.047285482788085934,0.15337854385375976,9.712677584838866
248682012725500,-0.0017025588313117623,-0.001939846551977098,-0.00021758026559837162,0.046238019561767575,0.15352818145751954,9.700407301330566
248682022697500,-0.0023462448734790087,-0.0014761901693418622,-9.161273919744417e-05,0.04878185882568359,0.15682020874023436,9.687388829803465
248682032669500,-0.0007068029372021556,-0.0016732640797272325,0.0002697782183531672,0.0474351203918457,0.15352818145751954,9.692326870727538
248682042641500,-0.0034048515371978283,-0.0003009371866937727,0.0008511462947353721,0.042945992279052735,0.14948796615600585,9.699659113311768
248682052613500,-0.001050084363669157,-0.002397377509623766,0.00029348034877330065,0.043245267486572266,0.14649521408081054,9.705943892669676
248682062585500,-0.0034847462084144354,-0.0033161682076752186,0.0014674017438665032,0.047884033203124995,0.14335282440185546,9.700407301330566
248682072557500,-0.0022714100778102875,-0.0018940401496365666,0.00043835630640387535,0.048183308410644526,0.15637129592895507,9.695469260406494
248682082529500,-0.002847185591235757,-0.001800030586309731,0.0006082659820094705,0.04713584518432617,0.15322890625,9.681552963256836
248682092501500,-0.0036637107841670513,-0.003020024625584483,0.0008317052270285785,0.04249707946777344,0.15981296081542967,9.686491004180908
248682102473500,-0.001219727797433734,-0.002094842493534088,0.0026024410035461187,0.0474351203918457,0.15532383270263672,9.692476508331298
248682112445500,-0.0015195996966212988,-0.0013374395202845335,0.0005645901546813548,0.04908113403320312,0.1580173095703125,9.695768535614013
248682122417500,-0.003489806316792965,-0.0031427964568138123,-0.0004316983977332711,0.04534019393920898,0.14933832855224607,9.692925421142577
248682132389500,-0.00016192019393201917,-0.0027332021854817867,0.0005044027348048985,0.04848258361816406,0.13916297149658202,9.707889181518555
248682142362500,-0.0012253203894942999,-0.002424541860818863,-0.0009760485263541341,0.0378583137512207,0.14589666366577148,9.689633393859863
248682152334500,-0.0003174488083459437,-0.0006370281334966421,0.0014423680258914828,0.050727147674560547,0.14963760375976562,9.680206224822998
248682162306500,-0.0022295983508229256,-0.003008306724950671,0.00017976337403524667,0.04189852905273437,0.1414075355529785,9.68529390335083
248682172278500,-0.0023299995809793472,-0.0012980246683582664,0.0014860439114272594,0.044292730712890624,0.1541267318725586,9.680655137634277
248682182250500,-0.002231196267530322,-0.002828276949003339,0.0025457157753407955,0.05132569808959961,0.15517419509887695,9.700407301330566
248682192222500,-0.0029582392890006304,-0.0018807243322953582,0.0010186590952798724,0.055066638183593745,0.15816694717407226,9.688885205841064
248682202194500,-0.0024775387719273567,-0.0003299656673334539,0.001145159243606031,0.0474351203918457,0.15981296081542967,9.680655137634277
248682212166500,-0.0023345269728451967,-0.0023758059833198786,0.000480434246128425,0.030974983978271482,0.14679448928833008,9.695618898010252
248682222138500,-0.0028842033352702856,-0.003591272747144103,0.002245843643322587,0.04234744186401367,0.1479915901184082,9.69831237487793
248682232110500,-0.003094326937571168,-0.00039734362508170307,0.003291400847956538,0.0469862075805664,0.14993687896728514,9.695918173217773
248682242082500,-0.002287655370309949,-0.001648230361752212,0.0011283813510090113,0.04504091873168945,0.1393126091003418,9.698162737274169
248682252054500,-0.003212571144104004,-0.004013383761048317,0.0003632551815826446,0.040701428222656245,0.14604630126953125,9.701454764556884
248682262026500,-0.004491687286645174,-0.0019313243683427572,0.0010255833622068167,0.03920505218505859,0.1566705711364746,9.687089554595946
248682271998500,-0.0022660838440060616,-0.003593403147533536,0.0006543386843986809,0.046537294769287106,0.15472528228759766,9.676016371917724
248682281970500,-0.0027561055030673742,-0.0018777948571369052,0.0008471515611745417,0.04219780426025391,0.15248071823120116,9.69696563644409
248682291942500,-0.0032471923623234034,-0.001695900922641158,0.0011033476330339909,0.050128597259521485,0.1441010124206543,9.703848966217041
248682301914500,-0.003477022983133793,-0.001618403010070324,0.0018871158827096224,0.049230771636962885,0.155772745513916,9.692626145935058
248682311886500,-0.0034045851789414883,-0.002267149044200778,0.0006514092092402279,0.05521627578735351,0.15592238311767578,9.690531219482422
248682321858500,-0.0018021611031144857,-0.003576359013095498,0.002341983839869499,0.05596446380615234,0.15248071823120116,9.698910925292969
248682331830500,-0.002636263146996498,-0.0014674017438665032,0.00044661210267804563,0.043544542694091797,0.155772745513916,9.699359838104247
248682341803500,-0.001817341079004109,-0.0020160130225121975,-0.0014333132421597838,0.039354689788818356,0.1527799934387207,9.70354969100952
248682351775500,-0.0015339808305725455,-0.002011485630646348,0.0011036139912903309,0.04608838195800781,0.15322890625,9.681403325653076
248682361747500,-0.003172091208398342,-0.0021640846971422434,9.267800487577915e-05,0.033518823242187495,0.15637129592895507,9.702202952575684
248682371719500,-0.003884752979502082,-0.0018759306985884905,-0.00038722361205145717,0.05282207412719726,0.15936404800415038,9.698910925292969
248682381691500,-0.0022338596172630787,-0.0015523566398769617,0.0007787083159200847,0.04908113403320312,0.1406593475341797,9.680206224822998
248682391663500,-0.003495398908853531,-0.00264798104763031,0.00180908537004143,0.04055179061889648,0.15337854385375976,9.702053314971923
248682401635500,-0.0016783240716904402,-0.0028005801141262054,0.0017662084428593516,0.04863222122192382,0.1409586227416992,9.695618898010252
248682411607500,-0.0023177489638328552,-0.00199364242143929,0.001966478070244193,0.04803367080688476,0.15652093353271485,9.68454571533203
248682421579500,-0.002698581200093031,-0.001538241864182055,-0.00011478224041638896,0.05237316131591797,0.14829086532592772,9.687239192199707
248682431551500,-0.0027023095171898603,-0.0023819312918931246,0.0016674051294103265,0.04519055633544922,0.1470937644958496,9.695918173217773
248682441523500,-0.004200603812932968,-0.0021638183388859034,0.001383778522722423,0.05566518859863281,0.15951368560791016,9.7039986038208
248682451495500,-0.002159290947020054,-0.0018807243322953582,0.0013515542959794402,0.04563946914672851,0.14125789794921875,9.690381581878661
248682461467417,-0.0023790018167346716,-0.0019651465117931366,0.0019049590919166803,0.05850830307006836,0.14694412689208983,9.69831237487793
248682471439417,-0.002469282830134034,-0.003638677066192031,0.001038366463035345,0.03890577697753906,0.155772745513916,9.71118120880127
248682481411417,-0.001961151836439967,-0.002010686555877328,0.0011938951211050153,0.046537294769287106,0.15352818145751954,9.69756418685913
248682491383417,-0.0010783139150589705,-0.0018575548892840743,0.0018796591321006417,0.05491700057983398,0.15502455749511718,9.689932669067382
248682501355417,-0.00350472005084157,-0.00224877311848104,-1.5446334145963192e-05,0.054767362976074214,0.1500865165710449,9.688286655426024
248682511328417,-0.003746002446860075,-0.0011829761788249016,-0.00046924897469580173,0.04504091873168945,0.14185644836425781,9.708038819122313
248682521300417,-0.0031851406674832106,-0.00041971419705078006,0.0009363674325868487,0.0378583137512207,0.14305354919433594,9.688885205841064
248682531272417,-0.0014426343841478229,-0.0013691311469301581,0.0014988270122557878,0.05416881256103515,0.15158289260864258,9.69756418685913
248682541244417,-0.0033390712924301624,-0.002394448034465313,0.00022903185163158923,0.0430956298828125,0.15637129592895507,9.69831237487793
248682551216417,-0.0031414648983627558,-0.002912166528403759,0.0002926813904196024,0.04339490509033203,0.16086042404174802,9.705644617462157
248682561188417,-0.0015907060587778687,-0.0011012171162292361,0.0003091930120717734,0.04384381790161133,0.15248071823120116,9.683797527313232
248682571160417,-0.0028362665325403214,-0.0016652746126055717,0.0007835020078346133,0.04369418029785156,0.16011223602294922,9.701604402160644
248682581132417,-0.0010902981739491224,-0.003028546692803502,0.0006380933918990195,0.03980360260009765,0.16220716247558592,9.695918173217773
248682591104417,-0.0016490293201059103,-0.0023068301379680634,0.0010008158860728145,0.04683656997680664,0.15023615417480468,9.692326870727538
248682601076417,-0.002537459833547473,-0.0028099012561142445,0.001446362817659974,0.04773439559936523,0.13946224670410157,9.702352590179443
248682611048417,-0.0025390577502548695,-0.0006072007236070931,0.0012596751330420375,0.044292730712890624,0.1409586227416992,9.690531219482422
248682621020417,-0.0035206989850848913,-0.0020072245970368385,-0.0003414172388147563,0.04339490509033203,0.1409586227416992,9.706093530273437
248682630992417,-0.0037052559200674295,-0.002002697205170989,0.0007004113867878914,0.04848258361816406,0.15652093353271485,9.693224696350097
248682640964417,-0.002272475278005004,-0.002111886627972126,0.0009190568816848099,0.050128597259521485,0.14245499877929688,9.714922148895264
248682650936417,-0.0025451830588281155,-0.0022160164080560207,0.0009227853151969612,0.044292730712890624,0.15741875915527342,9.70354969100952
248682660908417,-0.0035691685043275356,-0.0032613070216029882,0.0007744472241029143,0.049829322052001954,0.15532383270263672,9.69068085708618
248682670881417,-0.00256409146822989,-0.0022503710351884365,-0.000261788722127676,0.0469862075805664,0.15233108062744138,9.695618898010252
248682680853417,-0.0033715618774294853,-0.003139334265142679,0.0015901734586805105,0.045938744354248044,0.15083470458984374,9.677512747955321
248682690825417,-0.0033015208318829536,-0.0026583673898130655,0.0016311861108988523,0.05087678527832031,0.1514332550048828,9.700108026123047
248682700797417,-0.0017326525412499905,-0.001540904981084168,0.0014911039033904672,0.04249707946777344,0.14634557647705076,9.695768535614013
248682710769417,-0.0035776905715465546,-0.0019382486352697015,0.0013840447645634413,0.05087678527832031,0.1441010124206543,9.69068085708618
248682720741417,-0.0020519655663520098,-0.003210440743714571,0.0007028082036413252,0.03725976333618164,0.14425065002441406,9.69068085708618
248682730713417,-0.0015904398169368505,-0.0032474587205797434,-0.00016538229829166085,0.047884033203124995,0.16355390090942382,9.704746791839598
248682740685417,-0.003229881636798382,-0.0020730046089738607,0.0006828344776295125,0.04713584518432617,0.16175824966430663,9.6917283203125
248682750657417,-0.001823732745833695,-0.002983539365231991,0.0005885586142539978,0.06254851837158203,0.15607202072143553,9.69696563644409
248682760629417,-0.0027105652261525393,-0.00196381495334208,0.0011773834703490138,0.0618003303527832,0.13916297149658202,9.708038819122313
248682770601417,-0.0021049624774605036,-0.0007062703371047974,-0.00017124126316048205,0.0378583137512207,0.15682020874023436,9.682750064086914
248682780573417,-0.002377936616539955,-0.0018897791160270572,0.0006370281334966421,0.06239888076782226,0.1671452033996582,9.689932669067382
248682790545417,-0.0030101709999144077,-0.003081809962168336,0.0025302693247795105,0.05491700057983398,0.15203180541992187,9.688436293029785
248682800517417,-0.0016338493442162871,-0.0023499734234064817,0.0006615291931666434,0.055365913391113276,0.1352723937988281,9.692476508331298
248682810490417,-0.0027481159195303917,-0.003590473672375083,0.0009262474486604333,0.0565630142211914,0.15367781906127928,9.68514426574707
248682820462417,-0.0019025622168555856,-0.0021875204984098673,0.0007507451227866113,0.04863222122192382,0.15173253021240232,9.68469535293579
248682830434417,-0.0009358347742818296,-0.0017566210590302944,0.001198955113068223,0.03651157531738281,0.14694412689208983,9.679607674407958
248682840406417,-0.0021230720449239016,-0.0025776736438274384,0.0006799050024710596,0.05027823486328125,0.14769231491088866,9.689334118652344
248682850378417,-0.003556119045242667,-0.00350392097607255,0.0008082693675532937,0.04548983154296875,0.1518821678161621,9.687239192199707
248682860350417,-0.002546780975535512,-0.0020700751338154078,0.000666322885081172,0.042945992279052735,0.15502455749511718,9.68454571533203
248682870322417,-0.0020570256747305393,-0.0031310785561800003,0.0012631373247131705,0.047584757995605464,0.1336263801574707,9.705345342254638
248682880294417,-0.003433347214013338,-0.0018610169645398855,-0.0004005394293926656,0.04414309310913086,0.14425065002441406,9.70504606704712
248682890266417,-0.005305283237248659,-0.002266882685944438,0.001130778226070106,0.0526724365234375,0.14993687896728514,9.695169985198975
248682900238417,-0.0019145464757457376,-0.0019273296929895878,0.0006359628750942647,0.04608838195800781,0.14559738845825196,9.712079034423828
248682910210417,-0.002183525823056698,-0.0022354573011398315,0.0005166532355360687,0.04848258361816406,0.15367781906127928,9.687388829803465
248682920182417,-0.0014210627414286137,-0.0026876621413975954,2.3968450477696024e-06,0.03725976333618164,0.15682020874023436,9.687837742614745
248682930155417,-0.0030543794855475426,-0.00222027744166553,0.0010101370280608535,0.055066638183593745,0.15023615417480468,9.699210200500488
248682940127417,-0.0026525084394961596,-0.0010303769959136844,0.0004215783847030252,0.03950432739257812,0.1452981132507324,9.690231944274903
248682950099417,-0.0017797905020415783,-0.001988049829378724,0.00017337177996523678,0.04997895965576172,0.1505354293823242,9.698910925292969
248682960071417,-0.0022927154786884785,-0.0011638014111667871,0.0007819040911272168,0.04548983154296875,0.155772745513916,9.693224696350097
248682970043417,-0.000788561999797821,-0.0007297061383724213,0.0007986819837242365,0.04399345550537109,0.15233108062744138,9.696367086029053
248682980015417,-0.0027561055030673742,-0.002805107505992055,0.0025963156949728727,0.04399345550537109,0.14814122772216795,9.698162737274169
248682989987417,-0.0032418658956885338,-0.0010165285784751177,0.0017393104499205947,0.04189852905273437,0.15337854385375976,9.688885205841064
248682999959417,-0.002831206424161792,-0.0032053806353360415,0.0010013486025854945,0.0522235237121582,0.14185644836425781,9.707889181518555
248683009931417,-0.002210956299677491,-0.004078631289303303,0.00242134602740407,0.04548983154296875,0.1580173095703125,9.695618898010252
248683019903417,-0.003260774305090308,-0.0010050770360976458,0.00029534456552937627,0.04399345550537109,0.14859014053344727,9.700706576538085
248683029875417,-0.0028570392169058323,-0.0010865697404369712,-0.00026525085559114814,0.034715924072265626,0.14993687896728514,9.703848966217041
248683039847417,-0.0011203918838873506,-0.0029403960797935724,0.001579787116497755,0.04608838195800781,0.15562310791015624,9.701454764556884
248683049819417,-0.0023305322974920273,-0.001386441639624536,0.00038163099088706076,0.04638765716552734,0.14769231491088866,9.684246440124511
248683059792417,-0.002712695859372616,-0.001455151243135333,0.0023102923296391964,0.04189852905273437,0.1444002876281738,9.686790279388427
248683069764417,-0.0013757890556007624,-0.0013169331941753626,-0.0005821670056320727,0.05027823486328125,0.14724340209960937,9.701305126953125
248683079736417,-0.002968359272927046,-0.0024780714884400368,-0.00017204020696226507,0.05431845016479492,0.15337854385375976,9.705794255065918
248683089708417,-0.0028642297256737947,-0.0040887510403990746,0.0010727213229984045,0.03965396499633789,0.15203180541992187,9.69127940750122
248683099680417,-0.000987766426987946,-0.0033907366450875998,0.0016785904299467802,0.0430956298828125,0.14649521408081054,9.69741454925537
248683109652417,-0.0022562299855053425,-0.0012333098566159606,0.0013579458463937044,0.048183308410644526,0.15083470458984374,9.689184481048583
248683119624417,-0.003043194068595767,-0.003308444982394576,0.0005044027348048985,0.05237316131591797,0.1457470260620117,9.694571434783935
248683129596417,-0.0006029396899975836,-0.002915362361818552,0.00032410668791271746,0.044891281127929686,0.14619593887329102,9.689932669067382
248683139568417,-0.0005826996639370918,-0.0027571707032620907,0.0011725898366421461,0.046238019561767575,0.1514332550048828,9.696067810821532
248683149540417,-0.002718554809689522,-0.002412823960185051,0.0017864484107121825,0.03725976333618164,0.15427636947631834,9.689633393859863
248683159512417,-0.0029875340405851603,-0.0020911141764372587,0.00044314999831840396,0.05102642288208008,0.14963760375976562,9.696067810821532
248683169485417,-0.002575809368863702,-0.0017531589837744832,-0.00017710021347738802,0.05192424850463867,0.1497872413635254,9.69756418685913
248683179457417,-0.0009627327090129256,-0.0028450549580156803,0.0005257080192677677,0.043544542694091797,0.15637129592895507,9.694571434783935
248683189429417,-0.00281975488178432,-0.0014152037911117077,-5.672533006872982e-05,0.04848258361816406,0.1632546257019043,9.690381581878661
248683199401417,-0.003379551460966468,-0.0023377228062599897,0.00036432043998502195,0.042945992279052735,0.15816694717407226,9.711330846405028
248683209373417,-0.003900465788319707,-0.002758502261713147,0.00036192359402775764,0.047584757995605464,0.14170681076049804,9.686640641784667
248683219345417,-0.0046629286371171474,-0.0016594156622886658,0.0018471685471013188,0.04504091873168945,0.143652099609375,9.686939916992188
248683229317417,-0.0022687469609081745,-0.002623746171593666,0.0011747203534469008,0.047285482788085934,0.15173253021240232,9.697264911651612
248683239289417,-0.0021821942646056414,-0.0019861855544149876,0.0025928535033017397,0.0469862075805664,0.15337854385375976,9.700257663726806
248683249261417,-0.003632019041106105,-0.0032977922819554806,0.0009675264009274542,0.04713584518432617,0.14993687896728514,9.70459715423584
248683259233417,-0.0012913667596876621,-0.0015627428656443954,-0.0016735304379835725,0.049230771636962885,0.14484920043945312,9.687987380218505
248683269206417,-0.0029646309558302164,-0.0031286815647035837,0.00035473305615596473,0.045938744354248044,0.13377601776123046,9.687388829803465
248683279178417,-0.001285241567529738,-0.002924683503806591,0.00020932445477228612,0.043544542694091797,0.15562310791015624,9.699210200500488
248683289150417,-0.0022626216523349285,-0.0013052152935415506,0.001184041379019618,0.05566518859863281,0.155772745513916,9.700706576538085
248683299122417,-0.0009811085183173418,-0.002270344877615571,0.00020240024605300277,0.04159925384521484,0.1605611488342285,9.687388829803465
248683309094417,-0.003433080855756998,-0.0017771273851394653,0.001984587637707591,0.04997895965576172,0.1457470260620117,9.689483756256102
248683319066417,-0.0017265273490920663,-0.0019033611752092838,0.0005619269795715809,0.0522235237121582,0.1441010124206543,9.695169985198975
248683329038417,-0.0025654230266809464,-0.001885784324258566,0.0007898935582488775,0.043544542694091797,0.13557166900634765,9.696367086029053
248683339010417,-0.0028961875941604376,-0.002558232517912984,0.0009049421059899032,0.04668693237304687,0.1514332550048828,9.698162737274169
248683348982417,-0.0011552792275324464,-0.00242187874391675,0.0008617989369668067,0.051774610900878905,0.15397709426879883,9.689034843444823
248683358954417,-0.002317482838407159,-0.002121740486472845,0.00046339002437889576,0.044891281127929686,0.15263035583496093,9.692476508331298
248683368926417,-0.0021694109309464693,-0.0023012375459074974,-8.149272616719827e-05,0.05237316131591797,0.15337854385375976,9.685443540954589
248683378899417,-0.0015315839555114508,-0.0034171019215136766,-1.7843178284238093e-05,0.05162497329711914,0.15218144302368164,9.698761287689209
248683388871417,-0.002685531508177519,-0.0008719189208932221,0.0012341088149696589,0.04369418029785156,0.13811550827026367,9.69756418685913
248683398843417,-0.002639725338667631,-0.0006612628931179643,0.0005784385721199214,0.05850830307006836,0.16310498809814453,9.698611650085448
248683408815417,-0.0017134778900071979,-0.0016287893522530794,0.0018498316640034318,0.03965396499633789,0.15472528228759766,9.679757312011718
248683418787417,-0.0011299792677164078,-0.0023755396250635386,0.0019345202017575502,0.032920272827148434,0.14724340209960937,9.699060562896728
248683428759417,-0.0027108315844088793,-0.0036221654154360294,0.00033902039285749197,0.04908113403320312,0.1518821678161621,9.689334118652344
248683438731417,-0.0018602180061861873,-0.0013667342718690634,0.0023070964962244034,0.05162497329711914,0.15158289260864258,9.69786346206665
248683448703417,-0.0014927018200978637,-0.0007701861904934049,-7.190534688561456e-06,0.04833294601440429,0.1541267318725586,9.696815998840332
248683458674625,-0.0027329358272254467,-0.0008847020799294114,0.0010064085945487022,0.04234744186401367,0.14679448928833008,9.68454571533203
248683468647625,-0.0023118900135159492,-0.0030485205352306366,0.0007925567333586514,0.03965396499633789,0.15128361740112303,9.701754039764404
248683478619625,-0.002623746171593666,-0.0037356161046773195,0.0013662016717717052,0.04548983154296875,0.1566705711364746,9.699509475708007
248683488591625,-0.0020335898734629154,-0.002216282533481717,0.00045087316539138556,0.05327098693847656,0.15816694717407226,9.683348614501952
248683498563625,-0.0021017666440457106,-0.0016306535108014941,6.950850365683436e-05,0.04444236831665039,0.15068506698608397,9.700706576538085
248683508535625,-0.003338006092235446,-0.0011438276851549745,0.0001994707708945498,0.042048166656494135,0.15981296081542967,9.706243167877197
248683518507625,-0.0017132115317508578,-0.002388589084148407,0.0005219795857556164,0.04563946914672851,0.1592144104003906,9.71028338317871
248683528479625,-0.0016636766958981752,-0.002115348819643259,-0.0006498112925328314,0.04414309310913086,0.1640028137207031,9.69112976989746
248683538451625,-0.0012112056137993932,-0.0018298579379916191,0.001606418751180172,0.04339490509033203,0.15113397979736326,9.695169985198975
248683548423625,-0.002665824256837368,-0.002532399957999587,0.0011241203173995018,0.052073886108398436,0.14903905334472656,9.693823246765136
248683558395625,-0.0020064255222678185,-0.0007816377910785377,0.0006191849242895842,0.04085106582641601,0.14948796615600585,9.686042091369629
248683568368625,-0.0031334753148257732,-0.0004183826094958931,0.000592287047766149,0.05087678527832031,0.15831658477783203,9.702053314971923
248683578340625,-0.0025326660834252834,-0.0009606021922081709,0.0005467469454742968,0.06045359191894531,0.15682020874023436,9.695918173217773
248683588312625,-0.0028367992490530014,-0.002529470482841134,0.00282082031480968,0.05716156463623046,0.16205752487182618,9.681253688049315
248683598284625,-0.0024580976460129023,-0.0022184131667017937,0.00030892668291926384,0.049230771636962885,0.15517419509887695,9.696666361236572
248683608256625,-0.0015960324089974165,-0.0027172232512384653,-0.0003475425182841718,0.05132569808959961,0.14724340209960937,9.694571434783935
248683618228625,-0.002466353354975581,-0.0012626046082004905,0.0005281048361212015,0.04713584518432617,0.14859014053344727,9.69068085708618
248683628200625,-0.0008514125947840512,-0.0019971043802797794,0.0020032296888530254,0.047285482788085934,0.14110826034545898,9.685742816162108
248683638172625,-0.0036754286848008633,-0.0012926984345540404,0.0003182477375958115,0.05820902786254883,0.15592238311767578,9.690082306671142
248683648144625,-0.0014466290595009923,-0.0030634342692792416,-6.897587445564568e-05,0.04399345550537109,0.15218144302368164,9.682450788879393
248683658117625,-0.0021728731226176023,-0.002377403900027275,3.5420041967881843e-05,0.0378583137512207,0.1580173095703125,9.689034843444823
248683668089625,-0.0024256070610135794,-0.001954760169610381,0.0003888215287588537,0.05431845016479492,0.14425065002441406,9.701454764556884
248683678061625,-0.002001898130401969,-0.0013078784104436636,0.000520647969096899,0.04369418029785156,0.15173253021240232,9.696815998840332
248683688033625,-0.0024557008873671293,-0.0021544971968978643,9.374327055411413e-05,0.0383072265625,0.15233108062744138,9.708637369537353
248683698005625,-0.0027925907634198666,-0.0029318740125745535,0.0008165251929312944,0.0522235237121582,0.15562310791015624,9.702202952575684
248683707977625,-0.0027624969370663166,-0.0012519520241767168,-0.0008114652009680867,0.03516483688354492,0.16086042404174802,9.699958388519287
248683717949625,-0.0027292075101286173,-0.0027486486360430717,0.0018066884949803352,0.041748891448974604,0.15113397979736326,9.694721072387695
248683727921625,-0.0021920478902757168,-0.002418416552245617,0.0018668759148567915,0.05282207412719726,0.15637129592895507,9.68529390335083
248683737894625,-0.0023086944129318,-0.0023545008152723312,-0.00030360036180354655,0.05581482620239257,0.15726912155151365,9.70968483276367
248683747866625,-0.003745203372091055,-0.0006831008358858526,0.0006293049664236605,0.053121349334716794,0.1562216583251953,9.692925421142577
248683757838625,-0.0038091193418949842,-0.002008289797231555,-0.00024820660473778844,0.04144961624145507,0.1610100616455078,9.707889181518555
248683767810625,-0.0027324033435434103,-0.0015371765475720167,-0.0004801679460797459,0.04279635467529297,0.15263035583496093,9.694122521972655
248683777782625,-0.0032493227627128363,-0.0032887374982237816,0.000538491178303957,0.04997895965576172,0.14814122772216795,9.688286655426024
248683787754625,-0.001948368619196117,-0.0031193606555461884,0.0021813951898366213,0.045938744354248044,0.14933832855224607,9.68484499053955
248683797726625,-0.0037795582320541143,-0.003025617217645049,0.001466869143769145,0.03815758895874023,0.13976152191162108,9.698761287689209
248683807698625,-0.0011688614031299949,-0.003397394670173526,0.0013323795283213258,0.04115034103393554,0.15173253021240232,9.698162737274169
248683817670625,-0.0020562265999615192,-0.0011446266435086727,0.0008218514849431813,0.04249707946777344,0.15128361740112303,9.690531219482422
248683827643625,-0.0006844323943369091,-0.001190433045849204,0.0014223942998796701,0.040102877807617184,0.16594810256958006,9.703250415802001
248683837615625,-0.0024980450980365276,-0.0023526365403085947,-0.0007813714328221977,0.04414309310913086,0.15442600708007811,9.708487731933593
248683847587625,-0.0017054883064702153,-0.002469282830134034,-0.00041492050513625145,0.050128597259521485,0.15517419509887695,9.69831237487793
248683857559625,-0.0025960493367165327,-0.0010253170039504766,0.0003323625132907182,0.05521627578735351,0.1441010124206543,9.686491004180908
248683867531625,-0.002537726191803813,-0.0036133769899606705,0.0007893609581515193,0.050727147674560547,0.16011223602294922,9.687089554595946
248683877503625,-0.0022418489679694176,-0.0017299894243478775,0.0003206445835530758,0.047884033203124995,0.1571194839477539,9.684246440124511
248683887475625,-0.0027169568929821253,-0.001445830101147294,0.00015419702685903758,0.03965396499633789,0.1427542739868164,9.701155489349365
248683897447625,-0.0023076289799064398,-0.002100168727338314,0.0005376922199502587,0.037409400939941405,0.14544775085449219,9.698910925292969
248683907420625,-0.0027028422337025404,-0.00195156445261091,9.108010999625549e-05,0.050128597259521485,0.14993687896728514,9.69112976989746
248683917392625,-0.002210956299677491,-0.003174754325300455,0.0009177253232337534,0.042048166656494135,0.15382745666503905,9.71118120880127
248683927364625,-0.0022980417124927044,-0.0018453042721375823,0.00023675501870457083,0.041748891448974604,0.14305354919433594,9.692177233123779
248683937336625,-0.002153964713215828,-0.0007084008539095521,0.0006250438746064901,0.04474164352416992,0.14814122772216795,9.69068085708618
248683947308625,-0.003040797309949994,-0.0025563682429492474,0.0022772690281271935,0.04085106582641601,0.1427542739868164,9.690980132293701
248683957280625,-0.0015952334506437182,-0.003692206460982561,0.0007954862085171044,0.050727147674560547,0.1562216583251953,9.701754039764404
248683967252625,-0.00433163158595562,-0.0025073662400245667,0.0007147924043238163,0.0474351203918457,0.1649006393432617,9.693374333953857
248683977225625,-0.002356631215661764,-0.002688727341592312,1.1717908819264267e-05,0.045938744354248044,0.15816694717407226,9.700257663726806
248683987197625,-0.0027166905347257853,-0.0022056300658732653,0.0007392935222014785,0.046238019561767575,0.15203180541992187,9.704297879028319
248683997169625,-0.001764077926054597,-0.0021491709630936384,-0.00040746363811194897,0.05132569808959961,0.1589151351928711,9.705794255065918
248684007141625,-0.002805906580761075,-0.0024383901618421078,0.0009116000146605074,0.05357026214599609,0.1518821678161621,9.69112976989746
248684017113625,-0.0033665020018815994,-0.0023989754263311625,0.0018887137994170189,0.04608838195800781,0.16250643768310546,9.696217448425292
248684027085625,-0.003430417738854885,-0.0010122675448656082,-0.000467118457891047,0.04668693237304687,0.15307926864624022,9.689334118652344
248684037057625,-0.002287921728566289,-0.0019651465117931366,0.0015385081060230732,0.052073886108398436,0.1466448516845703,9.693075058746338
248684047029625,-0.0016727314796298742,-0.0018852517241612077,0.002441585995256901,0.050128597259521485,0.13871405868530273,9.695020347595214
248684057001625,-0.0017715347930788994,-0.0023901870008558035,0.0018753979820758104,0.041748891448974604,0.14125789794921875,9.688885205841064
248684066974625,-0.0023422501981258392,-0.0021824603900313377,0.0018556906143203378,0.04773439559936523,0.14320318679809568,9.701454764556884
248684076946625,-0.003209641668945551,-0.0021435783710330725,0.0014825817197561264,0.04668693237304687,0.14829086532592772,9.693972884368895
248684086918625,-0.0016282566357403994,0.000553404854144901,0.0005536712124012411,0.04578910675048828,0.15173253021240232,9.700706576538085
248684096890625,-0.0027236149180680513,-0.002630936913192272,-0.00038216362008824944,0.03725976333618164,0.15158289260864258,9.69068085708618
248684106862625,-0.004741225857287645,-0.000597879639826715,-5.699164830730297e-05,0.04414309310913086,0.16609774017333984,9.696815998840332
248684116834625,-0.0033577135764062405,-0.003721234854310751,-0.0004543352697510272,0.04578910675048828,0.15023615417480468,9.689034843444823
248684126806625,-0.0031222901307046413,-0.002413356676697731,-0.0006343649583868682,0.0469862075805664,0.15337854385375976,9.701903677368163
248684136779625,-0.0024290692526847124,-0.0005299690528772771,0.0009978864109143615,0.05386953735351562,0.15637129592895507,9.6917283203125
248684146751625,-0.0033726270776242018,-0.001383778522722423,0.0006125270738266408,0.058657940673828124,0.15352818145751954,9.688585930633545
248684156723625,-0.0026988473255187273,-0.0020365193486213684,0.0010301107540726662,0.0474351203918457,0.15682020874023436,9.692775783538817
248684166695625,-0.001213336130604148,-0.003367567202076316,0.00017337177996523678,0.036361937713623046,0.14649521408081054,9.703400053405762
248684176667625,-0.002409628126770258,-0.002243713242933154,0.001698564155958593,0.051475335693359374,0.14634557647705076,9.699210200500488
248684186639625,-0.0024229439441114664,-0.0027449200861155987,0.00034647725988179445,0.051774610900878905,0.15128361740112303,9.702053314971923
248684196611625,-0.0029973878990858793,-0.0009544769418425858,0.0013424995122477412,0.045938744354248044,0.15322890625,9.695768535614013
248684206584625,-0.0013116068439558148,-0.0014801849611103535,0.0008125304593704641,0.054468087768554684,0.15592238311767578,9.679607674407958
248684216556625,-0.001805623178370297,-0.001600559800863266,0.0002865561400540173,0.040402153015136714,0.1610100616455078,9.6917283203125
248684226528625,-0.003563842037692666,-0.0015733955660834908,0.0005933523061685264,0.05746083984375,0.14245499877929688,9.69801309967041
248684236500625,-0.0026098978705704212,-0.0033968619536608458,-0.00016298545233439654,0.050727147674560547,0.14215572357177733,9.692775783538817
248684246472625,-0.0015161376213654876,-0.002225603675469756,0.001318264752626419,0.04803367080688476,0.15367781906127928,9.708487731933593
248684256444625,-0.004800880327820778,-0.001564873498864472,5.0333743274677545e-05,0.052073886108398436,0.1444002876281738,9.688137017822266
248684266416625,-0.0036538569256663322,-0.0018753979820758104,0.0009970874525606632,0.044292730712890624,0.14829086532592772,9.695169985198975
248684276389625,-0.0012772521004080772,-0.0012152004055678844,0.0010135991033166647,0.054767362976074214,0.15786767196655271,9.703100778198241
248684286361625,-0.003593935864046216,-0.0031079088803380728,-0.0017164073651656508,0.05581482620239257,0.1545756446838379,9.694421797180174
248684296333625,-0.0024881914723664522,-0.002928145695477724,0.000358461489668116,0.058657940673828124,0.13826514587402344,9.702202952575684
248684306305625,-0.002433863002806902,-0.001615473534911871,0.0014527543680742383,0.040701428222656245,0.15367781906127928,9.696815998840332
248684316277625,-0.00034700988908298314,-0.0032471923623234034,0.0025481125339865685,0.04504091873168945,0.1514332550048828,9.677812023162842
248684326249625,-0.002763828495517373,-0.001984853995963931,0.001318264752626419,0.04638765716552734,0.1505354293823242,9.700108026123047
248684336221625,-0.002234125742688775,-0.003850131994113326,0.0010335728293284774,0.042945992279052735,0.1527799934387207,9.686790279388427
248684346194625,-0.002447977662086487,-0.0018996327416971326,-0.00035127095179632306,0.05162497329711914,0.14335282440185546,9.70459715423584
248684356166625,-0.0015515576815232635,-0.0023427826818078756,0.00024341292737517506,0.041000703430175776,0.14619593887329102,9.694870709991454
248684366138625,-0.0037859496660530567,-0.0008839031797833741,-0.00033662354690022767,0.04504091873168945,0.15113397979736326,9.688585930633545
248684376110625,-0.0029949909076094627,-0.002609631512314081,0.0001054611784638837,0.05955576629638672,0.148739778137207,9.707440268707275
248684386082625,-0.003320695599541068,-0.0015427692560479045,0.0022098910994827747,0.049530046844482416,0.15996259841918944,9.675717096710205
248684396054625,-0.004452539142221212,-0.003052248852327466,0.0008351673022843897,0.05162497329711914,0.15023615417480468,9.689184481048583
248684406026625,-0.0021076255943626165,-0.0030282805673778057,-0.0013523531379178166,0.056413376617431635,0.14395137481689452,9.69696563644409
248684415999625,-0.002043976215645671,-0.001306014135479927,-5.4861116950633004e-05,0.05416881256103515,0.14903905334472656,9.689932669067382
248684425971625,-0.002671949565410614,-0.002097505610436201,0.0010634001810103655,0.038756139373779294,0.13991115951538086,9.692775783538817
248684435943625,-0.0018037590198218822,-0.0015584818320348859,0.0013102752855047584,0.03591302490234375,0.155772745513916,9.67856021118164
248684445915625,-0.0024168186355382204,-0.0013454289874061942,0.0017606157343834639,0.04369418029785156,0.14619593887329102,9.697115274047851
248684455887625,-0.0020474381744861603,-0.0033665020018815994,0.001600293442606926,0.03232172241210937,0.15951368560791016,9.699659113311768
248684465860000,-0.002807770622894168,-0.0013949638232588768,0.00047617321251891553,0.04399345550537109,0.14335282440185546,9.697264911651612
248684475832000,-0.0016128103015944362,-0.0015022892039269209,3.5952674807049334e-05,0.044891281127929686,0.1497872413635254,9.696367086029053
248684485805000,-0.0021310613956302404,-0.0038541266694664955,0.0008234494016505778,0.040701428222656245,0.1518821678161621,9.689334118652344
248684495777000,-0.0009326389990746975,-0.0029228192288428545,0.0003070624661631882,0.06045359191894531,0.14634557647705076,9.685742816162108
248684505749000,-0.0018093516118824482,-0.001543834456242621,0.002407231368124485,0.04414309310913086,0.15128361740112303,9.706392805480956
248684515721000,-0.003178216516971588,-0.0004037352045997977,0.0002849582233466208,0.04384381790161133,0.15098434219360352,9.69127940750122
248684525693000,-0.004089550115168095,-0.0037979339249432087,0.0010120011866092682,0.05746083984375,0.15846622238159178,9.685443540954589
248684535665000,-0.002055694116279483,-0.0011140003334730864,-0.0002740392810665071,0.044891281127929686,0.16041151123046873,9.699659113311768
248684545638000,-0.0019267969764769077,-0.001663144095800817,-0.0009712548344396055,0.048931496429443354,0.15652093353271485,9.692476508331298
248684555610000,-0.002920954953879118,-0.0020730046089738607,0.00011478224041638896,0.047285482788085934,0.15382745666503905,9.693224696350097
248684565582000,-0.0015765913994982839,-0.0026612968649715185,-0.0001328917423961684,0.05252279891967773,0.14903905334472656,9.693523971557617
248684575554000,-0.002779541304334998,-0.0029353362042456865,0.0007624630234204233,0.041748891448974604,0.14634557647705076,9.692177233123779
248684585526000,-0.0010783139150589705,-0.0021813951898366213,0.0005262406193651259,0.04563946914672851,0.1423053611755371,9.697115274047851
248684595498000,-0.0016338493442162871,-0.002284459536895156,-8.655273268232122e-05,0.044891281127929686,0.15098434219360352,9.692177233123779
248684605470000,-0.002493784064427018,-0.002436259761452675,0.0014474280178546906,0.050427872467041016,0.15233108062744138,9.694272159576416
248684615443000,-0.0013648699969053268,-0.001704689348116517,0.0010934938909485936,0.04773439559936523,0.15173253021240232,9.687089554595946
248684625415000,-0.003082609036937356,-0.0021044297609478235,-0.00020213393145240843,0.0326209976196289,0.16445172653198242,9.69846201248169
248684635387000,-0.0027768779546022415,-0.002582467393949628,0.0005408879951573908,0.04219780426025391,0.15098434219360352,9.694122521972655
248684645359000,-0.002493517706170678,-0.0003499393642414361,0.0009973538108170033,0.050427872467041016,0.1527799934387207,9.699509475708007
248684655331000,-0.0029406624380499125,-0.002273540711030364,0.0014737932942807674,0.051475335693359374,0.15322890625,9.686191728973387
248684665303000,-0.0013126720441505313,-0.001627457677386701,0.0013323795283213258,0.05521627578735351,0.1527799934387207,9.682899701690673
248684675276000,-0.0014532869681715965,-0.003366768127307296,-6.924218723725062e-06,0.03666121292114258,0.14454992523193358,9.694870709991454
248684685248000,-0.0051718587055802345,-0.002828809665516019,4.713794987765141e-05,0.05746083984375,0.15382745666503905,9.700407301330566
248684695220000,-0.002754773711785674,-0.003285275539383292,0.000996821210719645,0.05087678527832031,0.16505027694702148,9.687688105010986
248684705192000,-0.0024256070610135794,-0.0007946872501634061,0.0006285060080699623,0.050427872467041016,0.13811550827026367,9.6917283203125
248684715164000,-0.0024381240364164114,-0.0007930893916636705,0.0008420915110036731,0.04249707946777344,0.14484920043945312,9.690531219482422
248684725136000,-0.0030663637444376945,-0.001192829804494977,0.00027297402266412973,0.06000467910766601,0.15442600708007811,9.700706576538085
248684735109000,-0.004031759686768055,-0.002058357233181596,0.0005699164466932416,0.044592005920410155,0.1441010124206543,9.702202952575684
248684745081000,-0.0014021543320268393,-0.0018618159228935838,0.00020959076937288046,0.06359598159790039,0.14380173721313474,9.687239192199707
248684755053000,-0.0022389194928109646,-0.0008383630774915218,0.0011470235185697675,0.04683656997680664,0.155772745513916,9.702202952575684
248684765025000,-0.0022892532870173454,-0.0009912285022437572,0.0008958873804658651,0.05357026214599609,0.15472528228759766,9.695020347595214
248684774997000,-0.0012809804175049067,-0.0022628880105912685,0.00014700648898724467,0.04189852905273437,0.15517419509887695,9.70354969100952
248684784969000,-0.001544100814498961,-0.0020596887916326523,0.001160072977654636,0.040701428222656245,0.15517419509887695,9.69187795791626
248684794942000,-0.001886317040771246,-0.001711081014946103,0.0014511564513668418,0.035763387298583985,0.15322890625,9.707589906311034
248684804914000,-0.0020564929582178593,-0.003489273600280285,-0.0006311691831797361,0.050128597259521485,0.15502455749511718,9.694870709991454
248684814886000,-0.0040884846821427345,-0.0027076357509940863,-0.0007840346079319715,0.04578910675048828,0.14200608596801756,9.700856214141846
248684824858000,-0.0016367788193747401,-0.002948652021586895,-0.0003062635369133204,0.053121349334716794,0.1384147834777832,9.706392805480956
248684834830000,-0.002269812161102891,-0.0026575683150440454,0.0008202536264434457,0.04384381790161133,0.1441010124206543,9.70354969100952
248684844802000,-0.002237854292616248,-0.003753725439310074,-0.0011403656098991632,0.043245267486572266,0.14888941574096679,9.702801502990722
248684854775000,-0.004156395327299833,-0.001520398654974997,0.0002407497668173164,0.054767362976074214,0.1470937644958496,9.68499462814331
248684864747000,-0.0027196200098842382,-0.002094576135277748,0.0005012069013901055,0.05057751007080078,0.1596633232116699,9.6787098487854
248684874719000,-0.0014495585346594453,-0.0017986990278586745,-3.941478280466981e-05,0.05282207412719726,0.15951368560791016,9.706542443084716
248684884691000,-0.0029198897536844015,-0.0025132251903414726,0.0008958873804658651,0.05162497329711914,0.15831658477783203,9.692326870727538
248684894663000,-0.001404284848831594,-0.001927862293086946,0.001568069215863943,0.04369418029785156,0.14814122772216795,9.693224696350097
248684904635000,-0.002913498319685459,-0.0023329290561378,0.0010210559703409672,0.041748891448974604,0.15263035583496093,9.687987380218505
248684914608000,-0.0015425028977915645,-0.002466619713231921,0.00012863067968282849,0.04803367080688476,0.13991115951538086,9.696516723632811
248684924580000,-0.0012482235906645656,-0.0028700886759907007,0.0008825715631246567,0.054468087768554684,0.14963760375976562,9.696516723632811
248684934552000,-0.0035723643377423286,-0.0026618295814841986,0.0009946906939148903,0.04279635467529297,0.14933832855224607,9.690531219482422
248684944524000,-0.001927862293086946,-0.0011997540714219213,0.0012431635987013578,0.04878185882568359,0.15203180541992187,9.670330142974853
248684954496000,-0.0026069683954119682,-0.0027627632953226566,0.0005305017111822963,0.04189852905273437,0.14125789794921875,9.701754039764404
248684964468000,-0.001142229768447578,-0.0011448930017650127,6.844323797849938e-05,0.043544542694091797,0.14859014053344727,9.701155489349365
248684974441000,-0.0025273398496210575,-0.002079662401229143,0.00028336033574305475,0.05027823486328125,0.14589666366577148,9.693374333953857
248684984413000,-0.0018825886072590947,-0.002767290687188506,-0.0003499393642414361,0.04504091873168945,0.15263035583496093,9.709385557556152
248684994385000,-0.002237854292616248,-0.003192064817994833,0.0013283847365528345,0.04159925384521484,0.1592144104003906,9.6917283203125
248685004357000,-0.002466619713231921,-0.002659698948264122,0.0010942928493022919,0.04534019393920898,0.15786767196655271,9.698910925292969
248685014329000,-0.0027057717088609934,-0.0010120011866092682,-0.0008050735923461616,0.04534019393920898,0.14829086532592772,9.696516723632811
248685024301000,-0.002644785214215517,-0.002953711897134781,0.0005845638806931674,0.0430956298828125,0.136619132232666,9.706692080688477
248685034274000,-0.003242132253944874,-0.0014090784825384617,0.0009800433181226254,0.04249707946777344,0.15263035583496093,9.695918173217773
248685044246000,-0.0029941920656710863,-0.00321816373616457,0.0008500810363329947,0.03591302490234375,0.15607202072143553,9.700407301330566
248685054218000,-0.0037968687247484922,-0.0010468886466696858,-0.0006000102148391306,0.039354689788818356,0.15786767196655271,9.694272159576416
248685064190000,-0.0015795208746567369,-0.0017387778498232365,0.0009784454014152288,0.048183308410644526,0.155772745513916,9.68499462814331
248685074162000,-0.002038117265328765,-0.0026080335956066847,0.002211222657933831,0.052073886108398436,0.14769231491088866,9.690980132293701
248685084135000,-0.0018804579740390182,-0.0026173547375947237,0.0009302421822212636,0.047884033203124995,0.13646949462890623,9.697115274047851
248685094107000,-0.0019648801535367966,-0.001966744428500533,0.0009946906939148903,0.05431845016479492,0.14125789794921875,9.677512747955321
248685104079000,-0.004192614462226629,-0.00273693073540926,0.0004830974212381989,0.05716156463623046,0.15502455749511718,9.689783031463623
248685114051000,-0.0016713999211788177,-0.002638926263898611,0.0005773733137175441,0.03845686416625976,0.13482348098754882,9.686790279388427
248685124023000,-0.0023153522051870823,-0.002148372121155262,-0.00045673211570829153,0.04249707946777344,0.14559738845825196,9.692177233123779
248685133995000,-0.0021638183388859034,-0.0018687400734052062,0.0005225121858529747,0.04713584518432617,0.14110826034545898,9.683947164916992
248685143968000,-0.0025004418566823006,-0.0010298443958163261,0.002680737990885973,0.046238019561767575,0.14993687896728514,9.685443540954589
248685153940000,-0.0019678096286952496,-0.001984587637707591,0.00043516053119674325,0.04444236831665039,0.15397709426879883,9.687837742614745
248685163912000,-0.0018985675415024161,-0.0015278555219992995,0.00022210762836039066,0.0430956298828125,0.13976152191162108,9.69756418685913
248685173884000,-0.002978213131427765,-0.0021992383990436792,0.0006034722900949419,0.05132569808959961,0.15427636947631834,9.693075058746338
248685183856000,-0.0015310513554140925,-0.0024144218768924475,0.00023409185814671218,0.050727147674560547,0.14425065002441406,9.683797527313232
248685193829000,-0.0025619608350098133,-0.0015781891997903585,0.001064731739461422,0.04878185882568359,0.1479915901184082,9.701155489349365
248685203801000,-0.0016919062472879887,-0.0013278521364554763,0.00034354778472334146,0.04997895965576172,0.15442600708007811,9.682151513671874
248685213773000,-0.004265584982931614,-0.0022114890161901712,0.0004719121498055756,0.04249707946777344,0.1497872413635254,9.696067810821532
248685223745000,-0.0041161817498505116,-0.0014231932582333684,8.57537888805382e-05,0.05087678527832031,0.15532383270263672,9.693075058746338
248685233717000,-0.0022860574536025524,-0.0031273500062525272,0.0005262406193651259,0.04055179061889648,0.15322890625,9.688585930633545
248685243689000,-0.0014503574930131435,-0.0018516959389671683,0.00036245622322894633,0.042646717071533204,0.14814122772216795,9.695918173217773
248685253662000,-0.0021462414879351854,-0.002159823663532734,-0.0007222492713481188,0.060902504730224606,0.14305354919433594,9.690531219482422
248685263634000,-0.0020604876335710287,-0.0012269183062016964,-0.0008719189208932221,0.04668693237304687,0.1484405029296875,9.676764559936522
248685273606000,-0.003338006092235446,-0.003465837799012661,0.0015094797126948833,0.050128597259521485,0.15442600708007811,9.69068085708618
248685283578000,-0.003296460723504424,-0.003349191276356578,0.00041625206358730793,0.05027823486328125,0.14454992523193358,9.689184481048583
248685293550000,-0.002841326640918851,-0.0018674085149541497,0.0003384877636563033,0.04548983154296875,0.148739778137207,9.702951140594482
248685303523000,-0.0012628709664568305,-0.0005928196478635073,0.002912432886660099,0.05102642288208008,0.16250643768310546,9.700556938934326
248685313495000,-0.0017222663154825568,-0.0016468988033011556,0.00018881811411119998,0.05057751007080078,0.15771803436279297,9.680056587219237
248685323467000,-0.0035020567011088133,-0.001933721243403852,1.757686368364375e-05,0.045938744354248044,0.1580173095703125,9.698910925292969
248685333439000,-0.002520415699109435,-0.0014772554859519005,0.00019893812714144588,0.04519055633544922,0.14559738845825196,9.692775783538817
248685343411000,-0.0020546286832541227,-0.0015427692560479045,0.0012868394842371345,0.045938744354248044,0.15128361740112303,9.69831237487793
248685353384000,-0.0022213426418602467,-0.002502306131646037,0.0004849616379942745,0.051475335693359374,0.15472528228759766,9.708487731933593
248685363356000,-0.002016811864450574,-0.0016567525453865528,-0.00021012341312598437,0.053121349334716794,0.13482348098754882,9.683647889709473
248685373328000,-0.0010570086305961013,-0.0012218583142384887,0.0017670074012130499,0.047884033203124995,0.1545756446838379,9.694122521972655
248685383300000,-0.0029798108153045177,-0.002153431996703148,0.0008921589469537139,0.044592005920410155,0.15337854385375976,9.703250415802001
248685393272000,-0.003207244910299778,-0.0018559569725766778,0.0025004418566823006,0.05491700057983398,0.14245499877929688,9.686939916992188
248685403244000,-0.0014434333425015211,-0.0025691515766084194,0.0013432984706014395,0.050727147674560547,0.15248071823120116,9.70369932861328
248685413217000,-0.0020793962758034468,-0.0020911141764372587,0.00046312372433021665,0.053121349334716794,0.14963760375976562,9.693523971557617
248685423189000,-0.0029646309558302164,-0.002273540711030364,0.000985103310085833,0.04938040924072265,0.14499883804321287,9.692027595520019
248685433161000,-0.002797118155285716,-0.002919357270002365,0.0031193606555461884,0.050128597259521485,0.15322890625,9.692177233123779
248685443133000,-0.0026666230987757444,-0.003070092061534524,0.0014567491598427296,0.05596446380615234,0.1479915901184082,9.680954412841796
248685453105000,-0.0024290692526847124,-0.001740109408274293,0.0011177286505699158,0.05401917495727539,0.14454992523193358,9.701903677368163
248685463078125,-0.0022413162514567375,-0.002098038326948881,3.51537273672875e-05,0.05491700057983398,0.15816694717407226,9.700108026123047
248685473050125,-0.002748914761468768,-0.0027627632953226566,-6.657902849838138e-05,0.045938744354248044,0.15023615417480468,9.698910925292969
248685483022125,-0.003406715579330921,-0.0004543352697510272,0.001592037733644247,0.04534019393920898,0.15846622238159178,9.703250415802001
248685492994125,-0.002142513170838356,-0.0025947177782654762,0.001445830101147294,0.046537294769287106,0.14320318679809568,9.698761287689209
248685502966125,-0.0014045510906726122,-0.0029033781029284,0.001347293145954609,0.047285482788085934,0.1479915901184082,9.687388829803465
248685512939125,-0.0033598439767956734,-0.0020985708106309175,0.0011142665753141046,0.04159925384521484,0.15786767196655271,9.702053314971923
248685522911125,-0.0022098910994827747,-0.00304612354375422,0.0007321029552258551,0.05491700057983398,0.14933832855224607,9.703250415802001
248685532883125,-0.0030240193009376526,-0.003176884725689888,0.0014058827655389905,0.04863222122192382,0.15532383270263672,9.693823246765136
248685542855125,-0.0032567796297371387,-0.001954760169610381,0.001186970854178071,0.04219780426025391,0.15248071823120116,9.703400053405762
248685552827125,-0.0013704627053812146,-0.0014021543320268393,0.0008727178792469203,0.04025251541137695,0.15936404800415038,9.692177233123779
248685562800125,-0.001678057829849422,-0.0016524913953617215,0.00027324032271280885,0.0570119270324707,0.15038579177856445,9.701454764556884
248685572772125,-0.002909237053245306,-0.0019411781104281545,1.5978966985130683e-06,0.0526724365234375,0.15547347030639647,9.705794255065918
248685582744125,-0.001264468883164227,-0.0019837887957692146,-0.0007592672482132912,0.04534019393920898,0.15397709426879883,9.694870709991454
248685592716125,-0.0022234732750803232,-0.0016186692519113421,0.00013741910515818745,0.04339490509033203,0.15218144302368164,9.692775783538817
248685602688125,-0.002546248259022832,-0.0008463526028208435,0.0003123887872789055,0.05327098693847656,0.1545756446838379,9.694571434783935
248685612661125,-0.0013254552613943815,-0.0028807413764297962,0.0003299656673334539,0.04548983154296875,0.15128361740112303,9.701155489349365
248685622633125,-0.0025361282750964165,-0.0018301242962479591,-0.0005914880894124508,0.04534019393920898,0.15322890625,9.70459715423584
248685632605125,-0.0023076289799064398,-0.0009456885163672268,0.0012961605098098516,0.051774610900878905,0.15083470458984374,9.699958388519287
248685642577125,-0.0018365158466622233,-0.0018492990639060736,0.0005118595436215401,0.050128597259521485,0.14559738845825196,9.702053314971923
248685652549125,-0.0019742012955248356,-0.002046372974291444,-0.0005147890187799931,0.05117606048583984,0.15696984634399413,9.699060562896728
248685662522125,-0.003373958868905902,-0.003144660498946905,0.0006838997360318899,0.04219780426025391,0.16011223602294922,9.689483756256102
248685672494125,-0.0025632926262915134,-0.0024194817524403334,0.0010950918076559901,0.04908113403320312,0.15876549758911132,9.695469260406494
248685682466125,-0.00444055488333106,-0.002825347473844886,-0.0006372944335453212,0.04144961624145507,0.15322890625,9.704746791839598
248685692438125,-0.0033486587926745415,-0.0018849853659048676,0.0012665993999689817,0.04339490509033203,0.15831658477783203,9.699808750915526
248685702410125,-0.001996305538341403,-0.0027531760279089212,0.0012120045721530914,0.05386953735351562,0.15652093353271485,9.694870709991454
248685712383125,-0.0033332123421132565,-0.0037787591572850943,0.0015326491557061672,0.048183308410644526,0.1545756446838379,9.702502227783203
248685722355125,-0.002510561840608716,-0.0025899240281432867,0.0017209346406161785,0.04863222122192382,0.15173253021240232,9.68529390335083
248685732327125,-0.003819771809503436,-0.002213885774835944,0.002329467097297311,0.04608838195800781,0.14604630126953125,9.683498252105712
248685742299125,-0.001847967505455017,-0.00279072648845613,0.0014761901693418622,0.04234744186401367,0.16460136413574217,9.683647889709473
248685752271125,-0.0030421288684010506,-0.0019318570848554373,-1.997370782191865e-05,0.040402153015136714,0.15831658477783203,9.687538467407226
248685762244125,-0.002927879337221384,-0.0023012375459074974,0.0016998957144096494,0.04773439559936523,0.13901333389282225,9.694122521972655
248685772216125,-0.004456267226487398,-0.0013369068037718534,0.00020746025256812572,0.04519055633544922,0.14829086532592772,9.707140993499756
248685782188125,-0.0029467877466231585,-0.0024679512716829777,0.0011347729014232755,0.04085106582641601,0.14425065002441406,9.693823246765136
248685792160125,-0.0015784555580466986,-0.0025393241085112095,0.0011408982099965215,0.047884033203124995,0.13976152191162108,9.681552963256836
248685802132125,-0.0022442457266151905,-0.001421861699782312,0.0012434299569576979,0.05162497329711914,0.14679448928833008,9.695169985198975
248685812105125,-0.0025598304346203804,-0.0020564929582178593,0.0010375675046816468,0.05297171173095703,0.14006079711914063,9.692476508331298
248685822077125,-0.0014990933705121279,-0.0020061591640114784,0.002898318227380514,0.053420624542236325,0.1457470260620117,9.702951140594482
248685832049125,-0.0022479742765426636,-0.002210956299677491,0.002284459536895156,0.04803367080688476,0.14993687896728514,9.682301151275635
248685842021125,-0.002561428351327777,-0.0017158746486529708,0.0030128341168165207,0.04144961624145507,0.15726912155151365,9.695918173217773
248685851994125,-0.0032325449865311384,-0.00253532943315804,0.0012708604335784912,0.04085106582641601,0.15023615417480468,9.695319622802733
248685861966125,-0.003677559085190296,-0.0019528960110619664,0.0011595403775572777,0.053121349334716794,0.14469956283569335,9.706093530273437
248685871938125,-0.0025939189363271,-0.002853044541552663,0.0003760383406188339,0.05357026214599609,0.1457470260620117,9.704746791839598
248685881910125,-0.002177933230996132,-0.003263970138505101,0.0022157500497996807,0.04908113403320312,0.14350246200561523,9.697264911651612
248685891882125,-0.002356364857405424,-0.003156911116093397,0.0008018778171390295,0.033219548034667964,0.1500865165710449,9.689034843444823
248685901855125,-0.0005731122801080346,-0.001975532853975892,0.0004135889175813645,0.04504091873168945,0.14544775085449219,9.682450788879393
248685911827125,-0.003323891432955861,-0.0026873957831412554,0.0003504719934426248,0.051774610900878905,0.14619593887329102,9.699659113311768
248685921799125,-0.0024764735717326403,-0.0020333235152065754,-0.00019121496006846428,0.051475335693359374,0.14784195251464843,9.689932669067382
248685931771125,-0.0034461303148418665,-0.0010756507981568575,0.000621848099399358,0.050427872467041016,0.14814122772216795,9.687837742614745
248685941743125,-0.002291117561981082,-0.0017004283145070076,0.0011430287268012762,0.04713584518432617,0.15472528228759766,9.696067810821532
248685951716125,-0.0027981833554804325,-0.0024564997293055058,0.0003020024741999805,0.051475335693359374,0.14380173721313474,9.683647889709473
248685961688125,-0.0037121803034096956,-0.0009496832499280572,0.0017875137273222208,0.05835866546630859,0.14619593887329102,9.697264911651612
248685971660125,-0.0019323896849527955,-0.003276220755651593,-0.0004471447318792343,0.049230771636962885,0.148739778137207,9.705494979858399
248685981632125,-0.0039015309885144234,-0.00195129809435457,-0.00032091091270558536,0.05820902786254883,0.15876549758911132,9.6917283203125
248685991605125,-0.003227218519896269,-0.002597380895167589,0.001258876291103661,0.05880757827758789,0.1479915901184082,9.687987380218505
248686001577125,-0.001945705502294004,-0.0006290386663749814,-0.0004974784678779542,0.04384381790161133,0.15218144302368164,9.706093530273437
248686011549125,-0.001916410750709474,-0.0014572817599400878,0.0006492786924354732,0.053121349334716794,0.14918869094848633,9.701005851745604
248686021521125,-0.002222940558567643,-0.0014354437589645386,0.0006551376427523792,0.03516483688354492,0.14544775085449219,9.701305126953125
248686031493125,-0.0025241440162062645,-0.0027473168447613716,-0.00047883635852485895,0.05192424850463867,0.14903905334472656,9.689633393859863
248686041466125,-0.0021856562234461308,-0.001969673903658986,0.0006119944155216217,0.050128597259521485,0.1470937644958496,9.695319622802733
248686051438125,-0.0015403723809868097,-0.0007478156476281583,0.0004551342281047255,0.04578910675048828,0.14215572357177733,9.701604402160644
248686061410125,-0.0006988134700804949,-0.00216488353908062,-0.0002580603177193552,0.04369418029785156,0.1566705711364746,9.701005851745604
248686071382125,-0.0027720844373106956,-0.0028565065003931522,0.001065264455974102,0.04115034103393554,0.14080898513793944,9.701305126953125
248686081355125,-0.0024833977222442627,-0.0023875238839536905,0.0009741843095980585,0.04384381790161133,0.14469956283569335,9.69127940750122
248686091327125,-0.002266882685944438,-0.0026181535795331,0.002082858234643936,0.05357026214599609,0.14724340209960937,9.695169985198975
248686101299125,-0.0038655782118439674,-0.003102849004790187,0.0005731122801080346,0.04997895965576172,0.15322890625,9.690531219482422
248686111271125,-0.0022157500497996807,-0.0034045851789414883,0.0008223841432482004,0.0526724365234375,0.15936404800415038,9.688885205841064
248686121243125,-0.0028663603588938713,-0.0010407633380964398,0.0012897689593955874,0.042646717071533204,0.15068506698608397,9.690531219482422
248686131216125,-0.0019531622529029846,-0.001725462032482028,-0.0005483448621816933,0.05102642288208008,0.15861585998535155,9.695319622802733
248686141188125,-0.002095375210046768,-0.002216815249994397,0.000651675509288907,0.050128597259521485,0.15726912155151365,9.680206224822998
248686151160125,-0.0024706146214157343,-0.001151284552179277,0.0011297129094600677,0.054468087768554684,0.14320318679809568,9.683198976898193
248686161132125,-0.002459961920976639,-0.0016935041639953852,0.00030839405371807516,0.05521627578735351,0.15771803436279297,9.692626145935058
248686171104125,-0.0022210762836039066,-0.0028067054226994514,0.001026115962304175,0.05626373901367187,0.15158289260864258,9.69083049468994
248686181077125,-0.0010865697404369712,-0.001145159243606031,0.0011640676530078053,0.06299743118286133,0.1541267318725586,9.708338094329834
248686191049125,-0.0028514466248452663,-0.003029079409316182,0.00035739620216190815,0.052073886108398436,0.14888941574096679,9.694571434783935
248686201021125,-0.0030748858116567135,-0.0027534421533346176,0.0010655306978151202,0.05461772537231445,0.15307926864624022,9.696815998840332
248686210993125,-0.003251187037676573,-0.001094825565814972,0.0008463526028208435,0.0570119270324707,0.14021043472290037,9.705794255065918
248686220966125,-0.0017025588313117623,-0.0023334617726504803,-0.0009065400226972997,0.05087678527832031,0.14918869094848633,9.695020347595214
248686230938125,-0.002103630919009447,-0.002019741339609027,0.0013973605819046497,0.036062662506103516,0.14619593887329102,9.695918173217773
248686240910125,-0.0025414545089006424,-0.0023257385473698378,0.00041571943438611925,0.04399345550537109,0.15547347030639647,9.703100778198241
248686250882125,-0.0027110979426652193,-0.002234658459201455,0.0007542071980424225,0.050427872467041016,0.15831658477783203,9.69157868270874
248686260855125,-0.002834934974089265,-0.0013795174891129136,0.00041332258842885494,0.05327098693847656,0.15263035583496093,9.708188456726074
248686270827125,-0.0024980450980365276,-0.003832022426649928,0.0010223875287920237,0.04773439559936523,0.15637129592895507,9.692177233123779
248686280799125,-0.0017931063193827868,-0.0026644926983863115,0.00043329631444066763,0.053719899749755856,0.143652099609375,9.686341366577148
248686290771125,-0.0018583538476377726,-0.001930525409989059,0.0018852517241612077,0.04504091873168945,0.14784195251464843,9.681552963256836
248686300743125,-0.002669286448508501,-0.001805889536626637,-0.00047697214176878333,0.049829322052001954,0.1497872413635254,9.700706576538085
248686310716125,-0.0010357033461332321,-0.0034445326309651136,0.0002913498319685459,0.053420624542236325,0.14739303970336914,9.703400053405762
248686320688125,-0.003070358419790864,-0.0008636631537228823,-0.0006074670236557722,0.047584757995605464,0.15158289260864258,9.68559317855835
248686330660125,-0.0012924320762977004,-0.0014839133946225047,0.002020540414378047,0.04997895965576172,0.1423053611755371,9.693972884368895
248686340632125,-0.0029356025625020266,-0.0030866037122905254,0.000322775129461661,0.04997895965576172,0.15547347030639647,9.705644617462157
248686350605125,-0.0016487629618495703,-0.00261868629604578,0.0012263857061043382,0.05027823486328125,0.15951368560791016,9.690082306671142
248686360577125,-0.0028248149901628494,-0.0018442390719428658,0.0015899071004241705,0.05835866546630859,0.15442600708007811,9.706841718292235
248686370549125,-0.0020216056145727634,-0.001847434788942337,0.003329484025016427,0.05596446380615234,0.1548749198913574,9.702951140594482
248686380521125,-0.002645051572471857,-0.0025939189363271,0.001743038883432746,0.046537294769287106,0.15532383270263672,9.700706576538085
248686390494125,-0.0025395904667675495,-0.002097239252179861,0.0004159857635386288,0.056712651824951166,0.15562310791015624,9.695319622802733
248686400466125,-0.0016594156622886658,-0.0014879080699756742,0.000431432097684592,0.04938040924072265,0.1514332550048828,9.699659113311768
248686410438125,-0.002026133006438613,-0.0019142802339047194,-0.00021358551748562604,0.0474351203918457,0.1505354293823242,9.67885948638916
