timestamp_ns,wx,wy,wz,ax,ay,az
248838183427625,-0.0023899206425994635,-0.0017086841398850083,-0.00037470675306394696,-0.2723404388427734,8.603414028167725,4.798279402160644
248838193399625,-0.0019797938875854015,-0.001577123999595642,0.0011717908782884479,0.04219780426025391,0.13946224670410157,9.702352590179443
248838203371625,-0.0017646105261519551,-0.0026644926983863115,0.0007691209320910275,0.04414309310913086,0.14260463638305662,9.70369932861328
248838213344625,-0.003692739177495241,-0.002855974016711116,0.00028815402765758336,0.037409400939941405,0.1393126091003418,9.692177233123779
248838223316625,-0.001088700257241726,-0.002138784620910883,0.0003347593592479825,0.036062662506103516,0.12240355987548827,9.684246440124511
248838233288625,-0.0019166769925504923,-0.0012950951931998134,0.002576608443632722,0.03995324020385742,0.131531453704834,9.689483756256102
248838243260625,-0.0030892668291926384,-0.0009859022684395313,1.25168571685208e-05,0.025737667846679687,0.13871405868530273,9.690082306671142
248838253232625,-0.0013166668359190226,-0.0007685882737860084,-0.00037976677413098514,0.021398177337646485,0.1375169578552246,9.705943892669676
248838263205625,-0.0033872744534164667,-0.002840261207893491,-8.894957863958552e-05,0.04219780426025391,0.1409586227416992,9.682450788879393
248838273177625,-0.0021949773654341698,-0.0021997711155563593,0.0005941512063145638,0.01571194839477539,0.13302782974243163,9.702502227783203
248838283149625,-0.0031140341889113188,-0.0005611280212178826,0.0016966998809948564,0.02977788314819336,0.14021043472290037,9.70459715423584
248838293121625,-0.002168878447264433,-0.0036735644098371267,0.0013020194601267576,0.029179332733154296,0.127042325592041,9.703848966217041
248838303093625,-0.003978762775659561,-0.0027483822777867317,-0.0006322344415821135,0.02558803024291992,0.1370680450439453,9.712677584838866
248838313066625,-0.003147856332361698,-0.0021078919526189566,0.0014543522847816348,0.04638765716552734,0.13078326568603516,9.7039986038208
248838323038625,-0.003459446132183075,-0.0018977685831487179,0.001008539111353457,0.037110125732421874,0.13198036651611328,9.695169985198975
248838333010625,-0.004116448108106852,-0.0012551478575915098,0.0014242585748434067,0.025139117431640625,0.1301847152709961,9.688137017822266
248838342982625,-0.0032170985359698534,-0.0028732845094054937,9.800432599149644e-05,0.03965396499633789,0.1349731185913086,9.684396077728271
248838352954625,-0.0035747610963881016,-0.002552373567596078,0.00036192359402775764,0.0383072265625,0.14080898513793944,9.696367086029053
248838362926625,-0.002201635157689452,-0.0013262542197480798,0.0006657902849838138,0.0282815071105957,0.13108254089355467,9.694571434783935
248838372899625,-0.002284725895151496,-0.002064482541754842,0.0015901734586805105,0.033818098449707026,0.13422493057250975,9.676166009521484
248838382871625,-0.0029081718530505896,-0.0018724685069173574,0.0009198558400385082,0.033818098449707026,0.14320318679809568,9.694571434783935
248838392843625,-0.0028447885997593403,-0.002867958042770624,0.002171008847653866,0.019303250885009764,0.1261444999694824,9.70444751663208
248838402815625,-0.0033214944414794445,-0.003772367723286152,0.0001968075957847759,0.0474351203918457,0.12629413757324218,9.69756418685913
248838412787625,-0.0016964336391538382,-0.0015014902455732226,0.0014655375853180885,0.0383072265625,0.13003507766723632,9.700407301330566
248838422760625,-0.002965429797768593,-0.003406715579330921,0.0007483482477255166,0.03501519927978516,0.13287819213867186,9.695618898010252
248838432732625,-0.003037335118278861,-0.0013840447645634413,0.0012002866715192795,0.03501519927978516,0.14245499877929688,9.700257663726806
248838442704625,-5.1399008953012526e-05,-0.003028813051059842,0.0015547533985227346,0.03366846084594726,0.1361702194213867,9.692925421142577
248838452676625,-0.0031153657473623753,-0.0006375607335940003,0.001677791471593082,0.0330699104309082,0.13916297149658202,9.701754039764404
248838462648625,-0.0020751350093632936,-0.0012141350889578462,0.0014836470363661647,0.033219548034667964,0.13557166900634765,9.680505500030517
248838472621625,-0.0033076461404561996,-0.0006972155533730984,0.0009739180095493793,0.03232172241210937,0.1345242057800293,9.702053314971923
248838482593625,-0.002314020646736026,-0.0015502260066568851,-0.0006554039428010583,0.03441664886474609,0.13213000411987305,9.701903677368163
248838492565625,-0.0027379959356039762,-0.003099919529631734,0.00045087316539138556,0.03950432739257812,0.12659341278076172,9.698162737274169
248838502537625,-0.0029760824982076883,-0.0017417073249816895,0.0016580841038376093,0.027084406280517576,0.12674305038452147,9.693673609161376
248838512509625,-0.001597630325704813,-0.002898584585636854,0.0013084110105410218,0.03127425918579101,0.13557166900634765,9.692775783538817
248838522481625,-0.0024679512716829777,-0.0022205437999218702,0.0007637945818714797,0.037409400939941405,0.1274912384033203,9.700257663726806
248838532454625,-0.0019507654942572117,-0.0020730046089738607,0.0012330436147749424,0.028880057525634766,0.13587094421386717,9.68409680252075
248838542426625,-0.002712429501116276,-0.002543052425608039,0.002148372121155262,0.027533319091796873,0.131531453704834,9.683498252105712
248838552398625,-0.0015390408225357533,-0.0010135991033166647,0.001752360025420785,0.03067570877075195,0.14110826034545898,9.683797527313232
248838562370625,-0.002543585142120719,-0.0022506373934447765,-0.0006668555433861911,0.04159925384521484,0.13123217849731444,9.7039986038208
248838572342625,-0.0014857775531709194,-0.001973402453586459,0.0008309062686748803,0.036062662506103516,0.12764087600708007,9.69142904510498
248838582315625,-0.001805889536626637,-0.0007033408619463444,0.0006530070677399635,0.04085106582641601,0.1361702194213867,9.690980132293701
248838592287625,-0.00398648576810956,-0.0023614249657839537,-0.00018375810759607702,0.02858078231811523,0.11911153259277343,9.689783031463623
248838602260542,-0.003801928833127022,-0.0025947177782654762,0.000535561703145504,0.03501519927978516,0.1249473991394043,9.687987380218505
248838612232542,-0.0028461201582103968,-0.0018548916559666395,0.0015877765836194158,0.027084406280517576,0.13213000411987305,9.69756418685913
248838622204542,-0.0019169433508068323,-0.0022354573011398315,0.0007028082036413252,0.036062662506103516,0.11821370697021484,9.694571434783935
248838632176542,-0.003424558788537979,-0.0022602248936891556,0.00022397184511646628,0.04144961624145507,0.13003507766723632,9.69756418685913
248838642149542,-0.0024564997293055058,-0.0020908478181809187,0.0012660667998716235,0.03696048812866211,0.13691840744018555,9.685892453765868
248838652121542,-0.0024501082953065634,-0.002514024032279849,-0.0003158508916385472,0.04563946914672851,0.1336263801574707,9.70369932861328
248838662093542,-0.002109489869326353,-0.0014101437991485,0.00028762139845639467,0.03411737365722656,0.13078326568603516,9.699659113311768
248838672065542,-0.0013462279457598925,-0.0023244069889187813,0.0016258598770946264,0.027084406280517576,0.1406593475341797,9.704297879028319
248838682037542,-0.002323075430467725,-0.002269812161102891,0.0014511564513668418,0.0234931037902832,0.12868833923339842,9.701305126953125
248838692010542,-0.0022770026698708534,-0.001984321279451251,0.0017369136912748218,0.03845686416625976,0.12823942642211913,9.712976860046385
248838701982542,-0.0034165694378316402,-0.0020040287636220455,0.001231711939908564,0.037110125732421874,0.13302782974243163,9.698611650085448
248838711954542,-0.0014357101172208786,-0.0028485171496868134,0.002432797569781542,0.029628245544433593,0.13916297149658202,9.686640641784667
248838721926542,-0.003611512714996934,-0.000969656917732209,0.0007491472060792148,0.02902969512939453,0.1261444999694824,9.715670336914062
248838731898542,-0.0020881847012788057,-0.002043443499132991,0.0004814995336346328,0.019901801300048826,0.1240495735168457,9.703400053405762
248838741870542,-0.0032661007717251778,-0.000362988852430135,0.002531334524974227,0.027682956695556638,0.13916297149658202,9.697115274047851
248838751843542,-0.003433347214013338,-0.001981658162549138,-0.00038828887045383453,0.033818098449707026,0.12973580245971678,9.711929396820068
248838761815542,-0.002843723399564624,-0.0001579254458192736,0.0010495517635717988,0.03591302490234375,0.13302782974243163,9.695918173217773
248838771787542,-0.002823217073455453,-0.003079679561778903,0.0016522251535207033,0.040701428222656245,0.13871405868530273,9.681852238464355
248838781759542,-0.0016178702935576439,-0.003058906877413392,-0.00037044569035060704,0.0326209976196289,0.12853870162963865,9.69756418685913
248838791731542,-0.0017177389236167073,-0.002665291540324688,0.0008727178792469203,0.03127425918579101,0.13302782974243163,9.707140993499756
248838801704542,-0.0018122810870409012,-0.0009297095239162445,0.0023273364640772343,0.01571194839477539,0.13856442108154296,9.687388829803465
248838811676542,-0.0022338596172630787,-0.0017073525814339519,0.0006956176948733628,0.03666121292114258,0.13512275619506836,9.683647889709473
248838821648542,-0.0020663465838879347,-0.0008412926108576357,0.0009443568997085094,0.039354689788818356,0.1292868896484375,9.706243167877197
248838831620542,-0.0023457121569663286,-0.0006671218434348702,0.0024533038958907127,0.02558803024291992,0.12375029830932617,9.701155489349365
248838841592542,-0.0026788737159222364,-0.001442900625988841,-0.00027803401462733746,0.029927520751953124,0.12285247268676758,9.695918173217773
248838851564542,-0.0018359832465648651,-0.0016207997687160969,0.0006615291931666434,0.03531447448730469,0.13003507766723632,9.699060562896728
248838861537542,-0.002910302486270666,-0.00025007082149386406,0.0012149340473115444,0.04234744186401367,0.13826514587402344,9.695618898010252
248838871509542,-0.002487925114110112,-0.0018887137994170189,-5.459480235003866e-05,0.03172317199707031,0.14050970993041992,9.705943892669676
248838881481542,-0.002017344580963254,-0.0013960290234535933,0.0002820287481881678,0.030526071166992186,0.13512275619506836,9.694272159576416
248838891453542,-0.0023790018167346716,-0.001805889536626637,0.0008167914929799736,0.03800795135498047,0.13542203140258788,9.695768535614013
248838901425542,-0.0032493227627128363,-0.0025987126864492893,0.002540922025218606,0.03277063522338867,0.13676876983642577,9.685742816162108
248838911397542,-0.0023249397054314613,-0.0029888655990362167,0.0032898029312491417,0.042945992279052735,0.13213000411987305,9.67841057357788
248838921370542,-0.0024655545130372047,-0.0017885789275169373,0.0005539375124499202,0.029478607940673827,0.13302782974243163,9.69142904510498
248838931342542,-0.0038341530598700047,-0.0013374395202845335,0.0017270599491894245,0.04534019393920898,0.13781623306274413,9.703400053405762
248838941314542,-0.0031672974582761526,-0.0016615461790934205,0.00012650014832615852,0.027084406280517576,0.1388636962890625,9.68469535293579
248838951286542,-0.0023334617726504803,-0.002531600883230567,0.0014863101532682776,0.028131869506835935,0.1288379768371582,9.694571434783935
248838961258542,-0.003002181416377425,-0.0027089675422757864,0.000147272803587839,0.03456628646850586,0.13976152191162108,9.681253688049315
248838971230542,-0.0037907434161752462,-0.001782187377102673,0.0007038734620437026,0.023343466186523436,0.12913725204467771,9.692476508331298
248838981203542,-0.001175519311800599,-0.0005667206714861095,1.7310547264060006e-05,0.02663549346923828,0.13512275619506836,9.695319622802733
248838991175542,-0.003990480676293373,-0.0024405207950621843,0.0015398397808894515,0.03696048812866211,0.13213000411987305,9.694721072387695
248839001147542,-0.0034072482958436012,-0.001463939668610692,-0.00041571943438611925,0.02858078231811523,0.12599486236572266,9.695618898010252
248839011119542,-0.0033939324785023928,-0.0020184097811579704,0.0015305186389014125,0.025438392639160156,0.13811550827026367,9.703848966217041
248839021091542,-0.0017773937433958054,-0.0016245282022282481,0.001047687605023384,0.03621230010986328,0.1322796417236328,9.711480484008788
248839031064542,-0.0025305356830358505,-0.0018221348291262984,0.0008428904693573713,0.026036943054199218,0.1240495735168457,9.701305126953125
248839041036542,-0.0018034926615655422,-0.003582750679925084,0.0014985607704147696,0.025139117431640625,0.12075754623413085,9.713874685668944
248839051008542,-0.0023044333793222904,-0.0010029464028775692,0.0001893507578643039,0.031573534393310544,0.1457470260620117,9.692925421142577
248839060980542,-0.0032530513126403093,-0.0016538230702280998,0.000297475082334131,0.028131869506835935,0.15352818145751954,9.692476508331298
248839070952542,-0.0016639430541545153,-0.001734783174470067,0.001234907773323357,0.02977788314819336,0.13467384338378904,9.695918173217773
248839080924542,-0.001141963410191238,-0.0013259878614917397,0.001163002452813089,0.02259527816772461,0.13033435287475587,9.683947164916992
248839090897542,-0.0023164174053817987,-0.0021230720449239016,0.0027739484794437885,0.04025251541137695,0.14260463638305662,9.700257663726806
248839100869542,-0.0013342436868697405,-0.0019361181184649467,0.001508680754341185,0.03411737365722656,0.13871405868530273,9.700407301330566
248839110841542,-0.001990979304537177,-0.00015579492901451886,-0.00013209278404247016,0.033518823242187495,0.14155717315673827,9.698162737274169
248839120813542,-0.00279125920496881,-0.0017568873008713126,-0.00017789915727917105,0.03007715835571289,0.12150573425292968,9.697115274047851
248839130785542,-0.0010692591313272715,-0.0012335762148723006,0.001868473831564188,0.03681085052490234,0.13242927932739257,9.692177233123779
248839140757542,-0.0031132353469729424,-0.003224289044737816,0.0016128103015944362,0.04129997863769531,0.14125789794921875,9.67885948638916
248839150730542,-0.002043976215645671,-0.0014000238152220845,0.000597879639826715,0.026785131072998045,0.13332710494995118,9.688436293029785
248839160702542,-0.0014980280539020896,-0.00040506679215468466,0.0010210559703409672,0.027533319091796873,0.13287819213867186,9.708188456726074
248839170674542,-0.0037169738207012415,-0.0022570290602743626,0.0015851134667173028,0.0383072265625,0.1327285545349121,9.708936644744872
248839180646542,-0.0029292108956724405,-0.002239984693005681,0.00024980452144518495,0.037110125732421874,0.1384147834777832,9.702202952575684
248839190618542,-0.004610464442521334,-0.0017062872648239136,0.0019326560432091355,0.04129997863769531,0.13916297149658202,9.694571434783935
248839200590542,-0.002522279741242528,-0.0017885789275169373,0.0014895059866830707,0.03696048812866211,0.1331774673461914,9.699659113311768
248839210563542,-0.0033534523099660873,-0.0013065468519926071,0.0006591323763132095,0.03995324020385742,0.14080898513793944,9.698611650085448
248839220535542,-0.003001915058121085,-0.0018338527297601104,0.0009440905996598303,0.024690204620361325,0.13332710494995118,9.697115274047851
248839230507542,-0.0025153555907309055,-0.0009507485083304346,0.0012412993237376213,0.03007715835571289,0.13138181610107422,9.685892453765868
248839240479542,-0.002398442942649126,-0.002130795270204544,0.00014567491598427296,0.022744915771484374,0.12689268798828124,9.720907653045654
248839250451542,-0.002660231664776802,-0.0024644893128424883,0.0020804614759981632,0.03860650177001953,0.13781623306274413,9.69696563644409
248839260423542,-0.0017454357584938407,-0.0031672974582761526,0.0012695288751274347,0.04414309310913086,0.13213000411987305,9.685443540954589
248839270396542,-0.0023065637797117233,-0.0026849990244954824,0.0004442152567207813,0.03396773605346679,0.1318307289123535,9.697115274047851
248839280368542,-0.003287672298029065,-0.0028826056513935328,0.0003944141499232501,0.03336918563842773,0.1441010124206543,9.706991355895996
248839290340542,-0.0046637277118861675,-0.0029590383637696505,0.0018210695125162601,0.040102877807617184,0.15382745666503905,9.685443540954589
248839300312542,-0.0030394657514989376,-0.0018855180824175477,-0.0002205097407568246,0.03336918563842773,0.127042325592041,9.693823246765136
248839310284542,-0.0015864450251683593,-0.000862864195369184,-0.00032916670897975564,0.02663549346923828,0.12315174789428711,9.69786346206665
248839320256542,-0.003192863892763853,-0.0028671592008322477,0.0017022925894707441,0.028880057525634766,0.1301847152709961,9.694421797180174
248839330229542,-0.002310824813321233,-0.0013667342718690634,0.0005826996639370918,0.040701428222656245,0.1375169578552246,9.700407301330566
248839340201542,-0.002382996492087841,-0.003153448924422264,0.0015933692920953035,0.03336918563842773,0.13467384338378904,9.69142904510498
248839350173542,-0.003093261504545808,-0.001978195970878005,-0.0005491438205353916,0.02902969512939453,0.1336263801574707,9.693374333953857
248839360145542,-0.002110022585839033,-0.0012884372845292091,0.0012716593919321895,0.03516483688354492,0.1345242057800293,9.707290631103515
248839370117542,-0.003373958868905902,-0.0035451999865472317,-5.193164179218002e-05,0.023792378997802732,0.13242927932739257,9.714922148895264
248839380089542,-0.0027505126781761646,-0.0036400086246430874,-0.0012460930738598108,0.029628245544433593,0.1240495735168457,9.706093530273437
248839390062542,-0.002369148191064596,-0.004000866785645485,0.0010096043115481734,0.040701428222656245,0.12988544006347655,9.693972884368895
248839400034542,-0.0031734227668493986,-0.0043798345141112804,0.0005744438385590911,0.02528875503540039,0.13242927932739257,9.689184481048583
248839410006542,-0.00401551416143775,-0.003379551460966468,0.0019156117923557758,0.029179332733154296,0.12449848632812499,9.6917283203125
248839419978542,-0.003051982494071126,-0.003007774008437991,0.0013171994360163808,0.0326209976196289,0.13557166900634765,9.692476508331298
248839429950542,-0.0033997914288192987,-0.0007984156836755574,0.0003075950953643769,0.02079962692260742,0.12958616485595703,9.695618898010252
248839439922542,-0.0029854036401957273,-0.002213885774835944,0.0007270429632626474,0.028730419921875,0.1258452247619629,9.683198976898193
248839449895542,-0.002986468840390444,-0.003624029690399766,0.001692705205641687,0.03950432739257812,0.1261444999694824,9.699659113311768
248839459867542,-0.0017041567480191588,-0.003995806910097599,0.0013552826130762696,0.036062662506103516,0.1427542739868164,9.704746791839598
248839469839542,-0.004018443636596203,-0.0024852619972079992,0.0014455638593062758,0.023642741394042967,0.1475426773071289,9.707440268707275
248839479811542,-0.002576608443632722,-0.0015401060227304697,0.0027768779546022415,0.018555062866210937,0.14155717315673827,9.708936644744872
248839489783542,-0.0028578380588442087,-0.004340686369687319,0.0028386632911860943,0.03426701126098632,0.1331774673461914,9.693972884368895
248839499755542,-0.003884752979502082,-0.001582982949912548,-0.0009315737406723201,0.015412673187255858,0.1292868896484375,9.693972884368895
248839509728542,-0.003073554253205657,-0.0013496900210157037,0.000957939017098397,0.035763387298583985,0.11671733093261719,9.689633393859863
248839519700542,-0.0022801985032856464,-0.0030128341168165207,0.0022146848496049643,0.04414309310913086,0.13467384338378904,9.69786346206665
248839529672542,-0.0029888655990362167,-0.0023877902422100306,0.002484729280695319,0.03860650177001953,0.1352723937988281,9.694272159576416
248839539644542,-0.0013041499769315124,-0.0024224112275987864,0.001315068919211626,0.03965396499633789,0.14305354919433594,9.70504606704712
248839549616542,-0.0036732980515807867,-0.002900448627769947,0.0014282532501965761,0.026485855865478514,0.13033435287475587,9.700108026123047
248839559588542,-0.0020844561513513327,-0.002558498876169324,-0.00035260253935121,0.023044190979003905,0.13168109130859373,9.683049339294433
248839569561542,-0.0018218684708699584,-0.001237571006640792,0.0022157500497996807,0.029328970336914062,0.1393126091003418,9.700706576538085
248839579533542,-0.0022008363157510757,-0.0022327941842377186,7.590009045088664e-05,0.019901801300048826,0.14484920043945312,9.704896429443359
248839589505542,-0.002916161436587572,-0.0030746194534003735,0.003824033075943589,0.02798223190307617,0.1327285545349121,9.70504606704712
248839599477542,-0.003995540551841259,-0.0024226775858551264,0.0007811051327735186,0.03202244720458984,0.13063362808227538,9.702651865386962
248839609449042,-0.0014290522085502744,-0.001341966912150383,9.187905379803851e-05,0.04144961624145507,0.1336263801574707,9.70504606704712
248839619421042,-0.0027957865968346596,-0.003172357566654682,-0.0003866909828502685,0.042646717071533204,0.13407529296874998,9.703250415802001
248839629393042,-0.0020445086993277073,-0.0028642297256737947,0.001538241864182055,0.03591302490234375,0.136619132232666,9.703250415802001
248839639366042,-0.003061569994315505,-0.0013725932221859694,0.0011227887589484453,0.032920272827148434,0.13811550827026367,9.698611650085448
248839649338042,-0.002888997085392475,-0.00043276368523947895,0.0013749900972470641,0.040402153015136714,0.12958616485595703,9.688436293029785
248839659310042,-0.002284193178638816,-0.0032176312524825335,0.000833036785479635,0.03202244720458984,0.12599486236572266,9.698910925292969
248839669282042,-0.002150236163288355,-0.0017302557826042175,0.0008633967954665422,0.03860650177001953,0.131531453704834,9.7039986038208
248839679254042,-0.0021944446489214897,-0.0006111954571679235,0.00018855179951060563,0.027682956695556638,0.13691840744018555,9.7039986038208
248839689226042,-0.0024138891603797674,-0.0028687571175396442,0.0002205097407568246,0.029478607940673827,0.14006079711914063,9.689184481048583
248839699199042,-0.0022599585354328156,-0.002511360915377736,0.0009273127070628107,0.022296002960205077,0.12958616485595703,9.701754039764404
248839709171042,-0.0026932547334581614,-0.0003462109307292849,0.002374740783125162,0.03621230010986328,0.14050970993041992,9.700706576538085
248839719143042,-0.001674861996434629,-0.0022421153262257576,0.002144377212971449,0.04055179061889648,0.13138181610107422,9.689932669067382
248839729115042,-0.00199310970492661,-0.0011353056179359555,0.0008309062686748803,0.03501519927978516,0.13512275619506836,9.69831237487793
248839739087042,-0.0015992282424122095,-0.00101120222825557,0.001184041379019618,0.033518823242187495,0.14080898513793944,9.690231944274903
248839749059042,-0.0025326660834252834,-0.0012799152173101902,0.0021105550695210695,0.029927520751953124,0.13572130661010742,9.677063835144043
248839759032042,-0.001874066423624754,-0.0010346380295231938,0.000824248360004276,0.04085106582641601,0.1222539222717285,9.689334118652344
248839769004042,-0.002304965863004327,-0.000675111310556531,0.0008852347382344306,0.03232172241210937,0.12868833923339842,9.702053314971923
248839778976042,-0.0018940401496365666,-0.002484462922438979,0.0014966964954510331,0.019602526092529295,0.1288379768371582,9.706392805480956
248839788948042,-0.0020530307665467262,-0.0015651397407054901,0.0005616606795229018,0.029478607940673827,0.143652099609375,9.68559317855835
248839798920042,-0.004201136529445648,-0.0025779400020837784,0.0018053569365292788,0.031872809600830075,0.14155717315673827,9.694272159576416
248839808892042,-0.003686347510665655,-0.0015251922886818647,0.0015792545164003968,0.029328970336914062,0.13467384338378904,9.699509475708007
248839818865042,-0.0011864382540807128,-0.0009962886106222868,0.0017094830982387066,0.03755903854370117,0.13213000411987305,9.698761287689209
248839828837042,-0.005086104851216078,-0.003058107802644372,0.002175003755837679,0.02902969512939453,0.12779051361083985,9.692326870727538
248839838809042,-0.002359027974307537,-0.0017768610268831253,0.0010285128373652697,0.04115034103393554,0.12958616485595703,9.694571434783935
248839848781042,-0.001416269107721746,-0.0022831279784440994,0.0016682040877640247,0.048931496429443354,0.12808978881835936,9.690980132293701
248839858753042,-0.0032956618815660477,-0.002920954953879118,0.0011765845119953156,0.04219780426025391,0.1349731185913086,9.707290631103515
248839868725042,-0.0011323761427775025,-0.0024474449455738068,0.0026027073618024588,0.0282815071105957,0.12898761444091797,9.696067810821532
248839878697042,-0.0023153522051870823,-0.0030714236199855804,0.0011350392596796155,0.02633621826171875,0.13392565536499024,9.69786346206665
248839888670042,-0.0026405241806060076,-0.001574194524437189,0.0007850998663343489,0.035763387298583985,0.12958616485595703,9.694721072387695
248839898642042,-0.0022951122373342514,-0.0011113371001556516,0.0008333030855283141,0.0326209976196289,0.13646949462890623,9.69801309967041
248839908614042,-0.0015603461069986224,-0.0029587720055133104,-0.0007195860962383449,0.028431144714355466,0.14170681076049804,9.692027595520019
248839918586042,-0.0026735474821180105,-0.0014037522487342358,0.0016407734947279096,0.03681085052490234,0.12734160079956053,9.686939916992188
248839928558042,-0.0027121631428599358,-0.0024202808272093534,0.0005898901727050543,0.03232172241210937,0.13003507766723632,9.71013374557495
248839938530042,-0.002977414056658745,-0.001496430253610015,0.001416002749465406,0.03336918563842773,0.12779051361083985,9.693972884368895
248839948503042,-0.0013353090034797788,-0.0031246868893504143,0.0017595505341887474,0.04444236831665039,0.127042325592041,9.689483756256102
248839958475042,-0.002406965009868145,-0.002264752285555005,0.001526257605291903,0.03755903854370117,0.13257891693115234,9.693224696350097
248839968447042,-0.002523078816011548,-0.0018756643403321505,0.003293797606602311,0.04144961624145507,0.1292868896484375,9.696217448425292
248839978419042,-0.002231995342299342,-0.0035782232880592346,0.0020327907986938953,0.03456628646850586,0.1322796417236328,9.701604402160644
248839988391042,-0.0029079054947942495,-0.0036011263728141785,0.000963797967415303,0.040701428222656245,0.12105682144165038,9.697264911651612
248839998363042,-0.0021789984311908484,-0.0011427623685449362,-0.0001573928166180849,0.020051438903808592,0.13826514587402344,9.69756418685913
248840008336042,-0.0023491743486374617,-0.0014407701091840863,-0.00042770366417244077,0.0430956298828125,0.12015899581909179,9.703250415802001
248840018308042,-0.0024983114562928677,-0.003469033632427454,0.0018333201296627522,0.03980360260009765,0.13003507766723632,9.70354969100952
248840028280042,-0.0022887205705046654,-0.0025859293527901173,-7.856325100874528e-05,0.0326209976196289,0.13422493057250975,9.702951140594482
248840038252042,-0.0028937908355146646,-0.001933721243403852,0.000916393706575036,0.03651157531738281,0.14110826034545898,9.686491004180908
248840048224042,-0.003005377249792218,-0.003932956140488386,0.0017813884187489748,0.03277063522338867,0.13781623306274413,9.690381581878661
248840058196042,-0.002341451123356819,-0.00247594085521996,0.0012191950809210539,0.033818098449707026,0.13377601776123046,9.686341366577148
248840068169042,-0.002119077369570732,-0.0018612833227962255,-0.0002985403698403388,0.04234744186401367,0.12779051361083985,9.69157868270874
248840078141042,-0.004010187927633524,-0.0023092268966138363,0.0010002832859754562,0.027383681488037107,0.13198036651611328,9.692027595520019
248840088113042,-0.002376871183514595,-0.0008929579053074121,0.0005211806274019182,0.03561374969482422,0.1253963119506836,9.689633393859863
248840098085042,-0.00098217383492738,-0.001648230361752212,0.0019861855544149876,0.036062662506103516,0.13422493057250975,9.706542443084716
248840108057042,-0.0013206616276875138,-0.0033747577108442783,0.0024615598376840353,0.032920272827148434,0.1274912384033203,9.707440268707275
248840118029042,-0.003084206720814109,-0.000984570593573153,-0.00035659727291204035,0.040102877807617184,0.12479776153564452,9.71028338317871
248840128002042,-0.00276196445338428,-0.00256382510997355,0.0018588864477351308,0.03516483688354492,0.13287819213867186,9.705943892669676
248840137974042,-0.0011387676931917667,-0.003200586885213852,0.00032330775866284966,0.02858078231811523,0.14245499877929688,9.693224696350097
248840147946042,-0.0012610068079084158,-0.0018279937794432044,0.0006431533838622272,0.04159925384521484,0.13257891693115234,9.693523971557617
248840157918042,-0.0028133634477853775,-0.0026812704745680094,0.0002085255109705031,0.04159925384521484,0.1409586227416992,9.70504606704712
248840167890042,-0.00261895265430212,-0.002484995638951659,0.0012474246323108673,0.02483984222412109,0.13003507766723632,9.69112976989746
248840177862042,-0.0036035231314599514,-0.0021579593885689974,0.000931041082367301,0.03725976333618164,0.14469956283569335,9.708338094329834
248840187834042,-0.0021169467363506556,-0.0018881811993196607,0.00043010051012970507,0.03950432739257812,0.1396118843078613,9.69846201248169
248840197807042,-0.004219778813421726,-0.0020295949652791023,0.001068193931132555,0.03456628646850586,0.136619132232666,9.698611650085448
248840207779042,-0.0030897995457053185,-0.0018865832826122642,0.0027076357509940863,0.025887305450439452,0.14155717315673827,9.693374333953857
248840217751042,-0.002454102970659733,-0.002353701740503311,0.0014990933705121279,0.037708676147460936,0.1327285545349121,9.700257663726806
248840227723042,-0.0009890979854390025,-0.002198705682530999,0.00013768543431069702,0.029478607940673827,0.13033435287475587,9.690231944274903
248840237695042,-0.0020186761394143105,-0.00290364446118474,0.0009113337146118283,0.033518823242187495,0.13168109130859373,9.695618898010252
248840247667042,-0.0022501046769320965,-0.0017353157745674253,0.0012860405258834362,0.03995324020385742,0.1375169578552246,9.700706576538085
248840257640042,-0.001865011639893055,-0.003471164032816887,0.00145222176797688,0.044592005920410155,0.13198036651611328,9.706243167877197
248840267612042,-0.0022330605424940586,-0.0018700717482715845,-0.00016698020044714212,0.031124621582031248,0.13916297149658202,9.69771382446289
248840277584042,-0.0030919299460947514,-0.0019558256026357412,0.0025656893849372864,0.028131869506835935,0.1375169578552246,9.712827222442627
248840287556042,-0.002614957746118307,-0.002978213131427765,0.001930525409989059,0.030974983978271482,0.12644377517700195,9.705195704650878
248840297528042,-0.002126534003764391,-0.0015736619243398309,0.0011917646043002605,0.027383681488037107,0.13826514587402344,9.698611650085448
248840307500042,-0.002993126632645726,-0.003288471372798085,0.0010735202813521028,0.03651157531738281,0.12779051361083985,9.701754039764404
248840317473042,-0.0027337349019944668,-0.00173771264962852,0.0022533005103468895,0.0378583137512207,0.13631985702514648,9.701754039764404
248840327445042,-0.0038245655596256256,-0.002700445242226124,-0.0005440838285721838,0.03037643356323242,0.13242927932739257,9.695319622802733
248840337417042,-0.0012953615514561534,-0.003424292430281639,3.27568814100232e-05,0.02154781494140625,0.136619132232666,9.699509475708007
248840347389042,-0.0014532869681715965,-0.0019739349372684956,-8.57537888805382e-05,0.041000703430175776,0.1301847152709961,9.708787007141114
248840357361042,-0.0035361452028155327,-0.0015227955300360918,0.0013158678775653243,0.033818098449707026,0.13123217849731444,9.69187795791626
248840367333042,-0.002668753731995821,-0.0025329324416816235,0.0029049760196357965,0.016609774017333982,0.12868833923339842,9.690082306671142
248840377306042,-0.004094077739864588,-0.001415736391209066,0.0015952334506437182,0.02633621826171875,0.13811550827026367,9.70968483276367
248840387278042,-0.0016325177857652307,-0.002168345730751753,0.002016545506194234,0.04129997863769531,0.1393126091003418,9.71058265838623
248840397250042,-0.0012088088551536202,-0.003793140407651663,-0.0006562029011547565,0.027533319091796873,0.13916297149658202,9.685742816162108
248840407222042,-0.0011805793037638068,-0.0028724854346364737,0.0006095975404605269,0.037409400939941405,0.13392565536499024,9.69756418685913
248840417194042,-0.0018732674652710557,-0.002273274352774024,0.0014527543680742383,0.041000703430175776,0.14200608596801756,9.710433020782471
248840427166042,-0.004162786994129419,-0.0019502328941598535,0.0007560714147984982,0.03277063522338867,0.1384147834777832,9.705195704650878
248840437138042,-0.0030061763245612383,-0.0021430456545203924,-1.7310547264060006e-05,0.034715924072265626,0.13467384338378904,9.692476508331298
248840447111042,-0.0020445086993277073,-0.0020117517560720444,0.001112668658606708,0.03845686416625976,0.13347674255371092,9.696367086029053
248840457083042,-0.0009089368977583945,-0.002663427498191595,0.0013973605819046497,0.031872809600830075,0.14425065002441406,9.707589906311034
248840467055042,-0.003709783311933279,-0.0009984191274270415,1.864212754298933e-05,0.032920272827148434,0.13781623306274413,9.688735568237304
248840477027042,-0.003145459573715925,-0.001281779375858605,0.0008841694798320532,0.025438392639160156,0.12150573425292968,9.690980132293701
248840486999042,-0.003013899317011237,-0.002510828198865056,-0.0005547364708036184,0.024091654205322263,0.1327285545349121,9.692177233123779
248840496971042,-0.0029225528705865145,-0.002329200739040971,-7.430219557136297e-05,0.04414309310913086,0.13721768264770506,9.688885205841064
248840506944042,-0.0030506509356200695,-0.0031502533238381147,0.0007784419576637447,0.03800795135498047,0.13063362808227538,9.683198976898193
248840516916042,-0.0027355989441275597,-0.0032229574862867594,0.0002306297537870705,0.04638765716552734,0.13063362808227538,9.693374333953857
248840526888042,-0.001181644620373845,-0.001936917076818645,0.0006908240029588342,0.02902969512939453,0.12419921112060546,9.699359838104247
248840536860042,-0.0034759577829390764,-0.0015901734586805105,0.0014852449530735612,0.033518823242187495,0.13302782974243163,9.687089554595946
248840546832042,-0.0023158849216997623,-0.0010540791554376483,-0.0001174454009742476,0.04384381790161133,0.1406593475341797,9.700108026123047
248840556804042,-0.0024719461798667908,-0.0020900487434118986,0.000278300343779847,0.02528875503540039,0.12973580245971678,9.693673609161376
248840566777042,-0.0015622102655470371,-0.0008575378451496363,0.0007986819837242365,0.030526071166992186,0.11791443176269531,9.69127940750122
248840576749042,-0.0007757788407616317,-0.001231711939908564,0.0014985607704147696,0.03890577697753906,0.1384147834777832,9.695918173217773
248840586721042,-0.0012929646763950586,-0.0023182816803455353,0.002920954953879118,0.044592005920410155,0.1253963119506836,9.681253688049315
248840596693042,-0.0016463662032037973,-0.001463406952098012,0.00033902039285749197,0.04085106582641601,0.13916297149658202,9.69112976989746
248840606665625,-0.0025963156949728727,-0.002983805723488331,0.0014138722326606512,0.0330699104309082,0.1370680450439453,9.706542443084716
248840616637625,-0.0029763488564640284,-0.0036224317736923695,-0.0008396946941502392,0.03980360260009765,0.13242927932739257,9.698611650085448
248840626610625,-0.0019025622168555856,-0.0030921963043510914,0.0004724447790067643,0.02633621826171875,0.1279401512145996,9.689783031463623
248840636582625,-0.0020216056145727634,-0.00012303804396651685,0.0015483618481084704,0.032172084808349606,0.1444002876281738,9.697264911651612
248840646554625,-0.0024772724136710167,-3.914846820407547e-05,0.0009872338268905878,0.042646717071533204,0.13721768264770506,9.699659113311768
248840656526625,-0.0015981629258021712,-0.0026053704787045717,0.0022833943367004395,0.03247136001586914,0.1288379768371582,9.709385557556152
248840666498625,-0.003064499469473958,-0.0027047062758356333,0.002092445734888315,0.03800795135498047,0.12135609664916991,9.692177233123779
248840676470625,-0.0007827030494809151,-0.0027925907634198666,0.0011267834343016148,0.018255787658691406,0.11791443176269531,9.69142904510498
248840686443625,-0.0018690064316615462,-0.0007592672482132912,-0.0006016080733388662,0.031573534393310544,0.1318307289123535,9.69786346206665
248840696415625,-0.0020700751338154078,-0.0029558425303548574,-0.0002713761059567332,0.0330699104309082,0.12823942642211913,9.702352590179443
248840706387625,-0.0033449302427470684,-0.0019017633749172091,0.0006079996819607913,0.03591302490234375,0.12554594955444334,9.687837742614745
248840716359625,-0.0020445086993277073,-0.0019315907265990973,0.000758734589908272,0.041748891448974604,0.11985972061157225,9.688585930633545
248840726331625,-0.0022770026698708534,-0.0016413062112405896,0.00030652983696199954,0.03845686416625976,0.12644377517700195,9.701903677368163
248840736303625,-0.0028610338922590017,-0.0020032296888530254,0.001201618229970336,0.02977788314819336,0.14021043472290037,9.689783031463623
248840746276625,-0.0022394522093236446,-0.0021342572290450335,0.001284708851017058,0.047584757995605464,0.1375169578552246,9.704297879028319
248840756248625,-0.0033212280832231045,-0.0023257385473698378,0.00133850472047925,0.036361937713623046,0.136619132232666,9.696067810821532
248840766220625,-0.0024311996530741453,-0.0030312100425362587,0.0013755226973444223,0.035464112091064454,0.14050970993041992,9.68454571533203
248840776192625,-0.0027055053506046534,-0.001487109111621976,0.0023070964962244034,0.03516483688354492,0.13033435287475587,9.688735568237304
248840786164625,-0.0031611721497029066,-0.0027774106711149216,-0.0001781654718797654,0.02858078231811523,0.1396118843078613,9.688137017822266
248840796136625,-0.002368349116295576,-0.000874582096002996,0.001184041379019618,0.033219548034667964,0.12629413757324218,9.695618898010252
248840806109625,-0.0020599551498889923,-0.0032083101104944944,0.0013164004776626825,0.03800795135498047,0.12764087600708007,9.685443540954589
248840816081625,-0.002201635157689452,-0.0020482372492551804,0.001574194524437189,0.02289455337524414,0.13512275619506836,9.69068085708618
248840826053625,-0.0017302557826042175,-0.002540389308705926,0.00033209618413820863,0.030974983978271482,0.12509703674316405,9.69741454925537
248840836025625,-0.0013265205780044198,-0.0029784792568534613,4.5540054998127744e-05,0.039055414581298825,0.1349731185913086,9.700407301330566
248840845997625,-0.0018751317402347922,-0.0017720673931762576,-0.00026551715563982725,0.04219780426025391,0.1331774673461914,9.69142904510498
248840855969625,-0.003765443339943886,-0.00169563468080014,0.0011342403013259172,0.043245267486572266,0.13407529296874998,9.686491004180908
248840865942625,-0.002005626680329442,-0.0018037590198218822,0.00023196132679004222,0.04339490509033203,0.12674305038452147,9.690531219482422
248840875914625,-0.0026370619889348745,-0.0028599686920642853,0.001776062068529427,0.03681085052490234,0.1384147834777832,9.693075058746338
248840885886625,-0.0009598032338544726,-0.0010463559301570058,0.00017097493400797248,0.026186580657958983,0.13587094421386717,9.695169985198975
248840895858625,-0.0013451626291498542,-0.0019686087034642696,0.0010050770360976458,0.027832594299316404,0.13213000411987305,9.69127940750122
248840905830625,-0.0017675400013104081,-0.0011563445441424847,0.0015994944842532277,0.021996727752685546,0.13676876983642577,9.69786346206665
248840915802625,-0.002004827605560422,-0.0013116068439558148,0.0029822078067809343,0.035763387298583985,0.13347674255371092,9.699359838104247
248840925775625,-0.002270611235871911,-0.001633316627703607,0.0003802994033321738,0.024690204620361325,0.13377601776123046,9.70459715423584
248840935747625,-0.0004916195175610483,-0.001493500778451562,0.0016530241118744016,0.033219548034667964,0.13242927932739257,9.695618898010252
248840945719625,-0.002371012233197689,-0.0021635519806295633,0.0016823188634589314,0.03501519927978516,0.13422493057250975,9.695169985198975
248840955691625,-0.003281546989455819,-0.0025811356026679277,-0.0007632619817741215,0.03651157531738281,0.13063362808227538,9.700257663726806
248840965663625,-0.0026501116808503866,-0.003138535423204303,0.0006556702428497374,0.033818098449707026,0.14006079711914063,9.704746791839598
248840975635625,-0.0037926076911389828,-0.0015590144321322441,0.0010993528412654996,0.027832594299316404,0.13078326568603516,9.70414824142456
248840985607625,-0.0019068233668804169,-0.002633600030094385,0.00108284130692482,0.0282815071105957,0.1423053611755371,9.696367086029053
248840995580625,-0.002264219569042325,-0.002974484581500292,0.0019539613276720047,0.029179332733154296,0.1345242057800293,9.68559317855835
248841005552625,-0.00424294825643301,-0.0025217472575604916,0.0008072041091509163,0.029478607940673827,0.12719196319580078,9.685742816162108
248841015524625,-0.0024892566725611687,-0.001785116852261126,0.00018322547839488834,0.029628245544433593,0.14155717315673827,9.708637369537353
248841025496625,-0.002784334821626544,-0.0009752495680004358,0.0015001586871221662,0.03396773605346679,0.12913725204467771,9.68514426574707
248841035468625,-0.001785116852261126,-0.0011891013709828258,0.00017070861940737814,0.028431144714355466,0.12330138549804687,9.693374333953857
248841045440625,-0.0007835020078346133,-0.0022114890161901712,0.0006354302167892456,0.03725976333618164,0.136619132232666,9.702053314971923
248841055413625,-0.0025039040483534336,-0.0015542207984253764,0.0006535397260449827,0.03277063522338867,0.14993687896728514,9.690531219482422
248841065385625,-0.002721750643104315,-0.0013643373968079686,0.0020208065398037434,0.03142389678955078,0.13916297149658202,9.69786346206665
248841075357625,-0.002261290093883872,-0.002010686555877328,0.0024461133871227503,0.040102877807617184,0.1396118843078613,9.699359838104247
248841085329625,-0.002433330286294222,-0.0013028184184804559,-0.0002287655370309949,0.03127425918579101,0.1349731185913086,9.692925421142577
248841095301625,-0.003087668912485242,-0.0026993800420314074,0.00038642468280158937,0.026785131072998045,0.13347674255371092,9.686640641784667
248841105273625,-0.0028597023338079453,-0.0018887137994170189,0.0005438174703158438,0.047285482788085934,0.13482348098754882,9.689932669067382
248841115246625,-0.0020362529903650284,-0.0015582155901938677,0.0008892294717952609,0.03232172241210937,0.12524667434692383,9.694272159576416
248841125218625,-0.0027893949300050735,-0.0015909724170342088,0.00133850472047925,0.04534019393920898,0.13003507766723632,9.690531219482422
248841135190625,-0.000996821210719645,-0.001133707701228559,0.0008101335843093693,0.03486556167602539,0.13482348098754882,9.699958388519287
248841145162625,-0.0007896272582001984,-0.0024051007349044085,0.0015880429418757558,0.036062662506103516,0.12808978881835936,9.693823246765136
248841155134625,-0.002947586588561535,-0.0014455638593062758,0.0007850998663343489,0.03456628646850586,0.12689268798828124,9.693972884368895
248841165106625,-0.0021521004382520914,-0.0043835630640387535,-0.0006719155353493989,0.037110125732421874,0.13033435287475587,9.694272159576416
248841175079625,-0.0024533038958907127,-0.002719087526202202,-0.000723048229701817,0.037110125732421874,0.13766659545898435,9.708637369537353
248841185051625,-0.003448260948061943,-0.0030242856591939926,0.0017632789677008986,0.033818098449707026,0.136619132232666,9.70459715423584
248841195023625,-0.0018988338997587562,-0.0013976269401609898,0.0011891013709828258,0.020949264526367185,0.13033435287475587,9.686341366577148
248841204995625,-0.0025395904667675495,-0.0013137373607605696,0.0018160095205530524,0.030226795959472655,0.12419921112060546,9.68454571533203
248841214967625,-0.0028666264843195677,-0.0016943031223490834,5.193164179218002e-05,0.0430956298828125,0.13168109130859373,9.6794580368042
248841224939625,-0.001350222621113062,-0.001990446588024497,0.0011789813870564103,0.04234744186401367,0.14215572357177733,9.681552963256836
248841234912625,-0.0011672634864225984,-0.002481267089024186,0.0004021373169962317,0.017657237243652344,0.12719196319580078,9.701454764556884
248841244884625,-0.0033899378031492233,-0.0029433255549520254,-0.0004601942200679332,0.03696048812866211,0.13646949462890623,9.702053314971923
248841254856625,-0.0033571808598935604,-0.0044051348231732845,0.0028213527984917164,0.05401917495727539,0.13631985702514648,9.707440268707275
248841264828625,-0.003468500915914774,-0.0024378576781600714,0.0010626012226566672,0.03815758895874023,0.13602058181762694,9.700706576538085
248841274800625,-0.002668221015483141,-0.0036277580074965954,0.0007062703371047974,0.02663549346923828,0.1258452247619629,9.708038819122313
248841284772625,-0.003326554549857974,-0.003457848448306322,0.0014977618120610714,0.0282815071105957,0.1336263801574707,9.686640641784667
248841294745625,-0.0016074840677902102,-0.00213638786226511,0.0008905610884539783,0.029628245544433593,0.12958616485595703,9.708487731933593
248841304717625,-0.004140949342399836,-8.81506348378025e-05,0.0017299894243478775,0.03336918563842773,0.1304839904785156,9.709086282348633
248841314689625,-0.0028868666850030422,-0.0007789746159687638,2.8229507734067738e-05,0.035763387298583985,0.13003507766723632,9.67841057357788
248841324661625,-0.0022072279825806618,-0.0031220237724483013,0.0008492820779792964,0.040102877807617184,0.1375169578552246,9.69696563644409
248841334633625,-0.0022975089959800243,-0.003096190979704261,0.00026312030968256295,0.03232172241210937,0.13213000411987305,9.712677584838866
248841344606625,-0.0031180288642644882,-0.003760383464396,0.001234907773323357,0.042646717071533204,0.1370680450439453,9.699060562896728
248841354578625,-0.0031007183715701103,-0.002641855739057064,0.0012737899087369442,0.03441664886474609,0.1457470260620117,9.701454764556884
248841364550625,-0.004288222175091505,-0.00222027744166553,0.000910268456209451,0.030226795959472655,0.148739778137207,9.69846201248169
248841374522625,-0.0016072177095338702,-0.002897519152611494,0.0013486248208209872,0.03815758895874023,0.13287819213867186,9.686640641784667
248841384494625,-0.0009614011505618691,-0.0011669971281662583,0.0018042916199192405,0.040102877807617184,0.12345102310180664,9.695768535614013
248841394466625,-0.002416019793599844,-0.001460743835195899,0.0008125304593704641,0.03725976333618164,0.12255319747924803,9.688885205841064
248841404439625,-0.002630670554935932,-0.0007486145477741957,0.001207477180287242,0.027383681488037107,0.1274912384033203,9.701005851745604
248841414411625,-0.002673813607543707,-0.0019006980583071709,0.00038748994120396674,0.03336918563842773,0.13856442108154296,9.711330846405028
248841424383625,-0.003876230912283063,-0.0039049931801855564,0.0003134540456812829,0.04115034103393554,0.12958616485595703,9.702352590179443
248841434355625,-0.0007725830073468387,-0.0035236284602433443,0.0022325278259813786,0.026036943054199218,0.13332710494995118,9.70504606704712
248841444327625,-0.0012279836228117347,-0.002150768879801035,-0.0006599313346669078,0.0430956298828125,0.13572130661010742,9.705345342254638
248841454299625,-0.002338521648198366,-0.001520398654974997,0.0008543420699425042,0.04129997863769531,0.12913725204467771,9.699359838104247
248841464272625,-0.002161954063922167,-0.001925199176184833,0.002231728984043002,0.03815758895874023,0.13123217849731444,9.688885205841064
248841474244625,-0.002508697798475623,-0.0004106594424229115,0.0013251889031380415,0.03516483688354492,0.13213000411987305,9.687987380218505
248841484216625,-0.0028839372098445892,-0.0020791299175471067,0.001156877144239843,0.03277063522338867,0.13781623306274413,9.67841057357788
248841494188625,-0.0019116170005872846,-0.0015789881581440568,0.001505484920926392,0.025139117431640625,0.1370680450439453,9.68469535293579
248841504160625,-0.0020596887916326523,-0.00264851376414299,-0.0008524778531864285,0.024690204620361325,0.12853870162963865,9.683797527313232
248841514132625,-0.003942277282476425,-0.003733751829713583,0.0015899071004241705,0.038756139373779294,0.13063362808227538,9.708338094329834
248841524105625,-0.0012221246724948287,-0.0028517129831016064,0.00010439591278554872,0.03336918563842773,0.13422493057250975,9.702651865386962
248841534077625,-0.002644785214215517,-0.0020189424976706505,0.0005896238726563752,0.04863222122192382,0.14559738845825196,9.69756418685913
248841544049625,0.0007731156656518579,-0.0004058657505083829,0.001454884884878993,0.040102877807617184,0.13242927932739257,9.699060562896728
248841554021625,-0.0018953717080876231,-5.6459015468135476e-05,0.0011265170760452747,0.027682956695556638,0.13467384338378904,9.687388829803465
248841563993625,-0.0030658310279250145,-0.002825613832101226,0.00030599720776081085,0.038756139373779294,0.13916297149658202,9.688735568237304
248841573965625,-0.002160090021789074,-0.001014398061670363,0.0024924525059759617,0.017657237243652344,0.14395137481689452,9.692775783538817
248841583938625,-0.0021963089238852262,-0.0012186624808236957,0.0003121224872302264,0.03486556167602539,0.1406593475341797,9.702951140594482
248841593910625,-0.0028549085836857557,-0.002142513170838356,-7.989483492565341e-06,0.0326209976196289,0.14859014053344727,9.710881933593749
248841603882625,-0.002415220718830824,-0.002770486520603299,0.0008828379213809967,0.03202244720458984,0.13467384338378904,9.71013374557495
248841613854125,-0.004376372788101435,-0.002900714986026287,-0.0003888215287588537,0.02528875503540039,0.11956044540405272,9.69846201248169
248841623826125,-0.0020668793004006147,-0.003157443832606077,0.0012484899489209056,0.0383072265625,0.1240495735168457,9.683198976898193
248841633798125,-0.0024772724136710167,-0.0035302862524986267,0.00299286050722003,0.02693476867675781,0.13946224670410157,9.689334118652344
248841643771125,-0.0016024239594116807,-0.0027531760279089212,0.0005408879951573908,0.027383681488037107,0.13467384338378904,9.687987380218505
248841653743125,-0.0015582155901938677,-0.0013432984706014395,0.002290318487212062,0.023044190979003905,0.12330138549804687,9.686640641784667
248841663715125,-0.0032796829473227262,-0.0022506373934447765,0.00210735946893692,0.01945288848876953,0.13482348098754882,9.68529390335083
248841673687125,-0.00421391986310482,-0.0015606123488396406,8.548746700398624e-05,0.03247136001586914,0.13901333389282225,9.703400053405762
248841683659125,-0.0035598473623394966,-0.002650910522788763,0.0008367652189917862,0.03037643356323242,0.14694412689208983,9.701754039764404
248841693631125,-0.0027204190846532583,-0.0018698053900152445,0.0012519520241767168,0.031573534393310544,0.131531453704834,9.69831237487793
248841703604125,-0.001493500778451562,-0.000847950461320579,0.0022426480427384377,0.032920272827148434,0.14215572357177733,9.699359838104247
248841713576125,-0.0027438548859208822,-0.002232261700555682,0.001044491771608591,0.04279635467529297,0.12913725204467771,9.695918173217773
248841723548125,-0.0023576964158564806,-0.003817375050857663,0.0013305152533575892,0.03411737365722656,0.1327285545349121,9.683647889709473
248841733520125,-0.0029670277144759893,-0.00267754215747118,-0.00047084689140319824,0.029328970336914062,0.13871405868530273,9.692925421142577
248841743492125,-0.002130262553691864,-0.002540122950449586,0.0015225291717797518,0.029478607940673827,0.1375169578552246,9.699509475708007
248841753464125,-0.0028972530271857977,-0.0025212145410478115,0.0009108011145144701,0.04773439559936523,0.12569558715820311,9.694721072387695
248841763437125,-0.002123604528605938,-0.0033563817851245403,0.0013289173366501927,0.04773439559936523,0.13213000411987305,9.702951140594482
248841773409125,-0.0034144388046115637,-0.002537193475291133,0.0005898901727050543,0.02424129180908203,0.12973580245971678,9.696815998840332
248841783381125,-0.0016650082543492317,-0.0011938951211050153,0.0007142598042264581,0.016609774017333982,0.1301847152709961,9.700257663726806
248841793353125,-0.0023467775899916887,-0.004491953644901514,0.00038988678716123104,0.03336918563842773,0.13407529296874998,9.689034843444823
248841803325125,-0.0011704593198373914,-0.002829608740285039,0.0004588626616168767,0.03007715835571289,0.1370680450439453,9.686790279388427
248841813297125,-0.0020503676496446133,-0.001219461439177394,0.0005970807396806777,0.03426701126098632,0.1466448516845703,9.70369932861328
248841823270125,-0.00221921200864017,-0.0021052288357168436,0.0008873652550391853,0.04025251541137695,0.1301847152709961,9.69112976989746
248841833242125,-0.0027515781112015247,-0.0027079021092504263,0.0006828344776295125,0.031872809600830075,0.1345242057800293,9.690231944274903
248841843214125,-0.0008215851848945022,-0.0011659319279715419,0.0014226606581360102,0.03845686416625976,0.13437456817626953,9.696067810821532
248841853186125,-0.0018423747969791293,-0.0018706043483689427,0.000636495475191623,0.04444236831665039,0.14245499877929688,9.701005851745604
248841863158125,-0.0041542649269104,-0.0015880429418757558,0.001636246219277382,0.02633621826171875,0.13721768264770506,9.692775783538817
248841873131125,-0.002442651428282261,-0.0008474178612232208,0.0014588796766474843,0.043245267486572266,0.1349731185913086,9.701604402160644
248841883103125,-0.0029787456151098013,-0.0021377194207161665,0.00018322547839488834,0.026785131072998045,0.13691840744018555,9.69696563644409
248841893075125,-0.002204564632847905,-0.0010657970560714602,0.000984570593573153,0.028880057525634766,0.12913725204467771,9.704746791839598
248841903047125,-0.0023209447972476482,-0.001362473238259554,0.0008998821140266955,0.032920272827148434,0.12419921112060546,9.69127940750122
248841913019125,-0.003471430391073227,-0.0027353328187018633,0.0012980246683582664,0.037708676147460936,0.13572130661010742,9.700407301330566
248841922991125,-0.0028216191567480564,-0.0031180288642644882,0.00031132352887652814,0.040402153015136714,0.13078326568603516,9.703400053405762
248841932964125,-0.0017025588313117623,-0.002100168727338314,0.00242187874391675,0.025139117431640625,0.13078326568603516,9.693673609161376
248841942936125,-0.0026764769572764635,-0.002441585995256901,0.0015419702976942062,0.033518823242187495,0.1349731185913086,9.696666361236572
248841952908125,-0.003469033632427454,-0.0029923277907073498,0.002546248259022832,0.032920272827148434,0.14514847564697264,9.70354969100952
248841962880125,-0.0005408879951573908,-0.0020098877139389515,0.0007677893154323101,0.03681085052490234,0.14245499877929688,9.698761287689209
248841972852125,-0.002371012233197689,-0.0017598168924450874,0.00034194986801594496,0.049230771636962885,0.1388636962890625,9.692476508331298
248841982824125,-0.0006133259739726782,-0.0002772350562736392,0.0017728663515299559,0.034715924072265626,0.12569558715820311,9.673023619842528
248841992797125,-0.0027305390685796738,-0.002570216776803136,0.0002825613773893565,0.03666121292114258,0.10998363876342773,9.689334118652344
248842002769125,-0.0018815232906490564,-0.0015627428656443954,0.0027366643771529198,0.04414309310913086,0.1292868896484375,9.683797527313232
248842012741125,-0.0009760485263541341,-0.0014612764352932572,0.0009531453251838684,0.03366846084594726,0.1349731185913086,9.701454764556884
248842022713125,-0.002832538215443492,-0.0021789984311908484,0.0020716730505228043,0.03696048812866211,0.13766659545898435,9.702202952575684
248842032685125,-0.0004063983797095716,-0.002409628126770258,0.0015824503498151898,0.03860650177001953,0.1406593475341797,9.700257663726806
248842042657125,-0.004230963997542858,-0.0013305152533575892,0.0011515507940202951,0.027533319091796873,0.12285247268676758,9.705345342254638
248842052630125,-0.003349990351125598,-0.0013667342718690634,-0.0002564624010119587,0.02663549346923828,0.12015899581909179,9.697115274047851
248842062602125,-0.0016050871927291155,-0.0019270633347332478,0.00108284130692482,0.029179332733154296,0.13691840744018555,9.700108026123047
248842072574125,-0.0024498419370502234,-0.0023015039041638374,0.002065015025436878,0.027234043884277342,0.12808978881835936,9.68484499053955
248842082546125,-0.0021310613956302404,-0.002517486223950982,3.382214708835818e-05,0.03456628646850586,0.13257891693115234,9.69157868270874
248842092518125,-0.0028820729348808527,-0.002380067016929388,0.002186455298215151,0.02454056701660156,0.12345102310180664,9.69696563644409
248842102491125,-0.003498861100524664,-0.0011765845119953156,0.001889246515929699,0.03441664886474609,0.1349731185913086,9.70504606704712
248842112463125,-0.0028644960839301348,-0.002094842493534088,0.00041092574247159064,0.03232172241210937,0.12509703674316405,9.699958388519287
248842122435125,-0.0016503608785569668,-0.002484462922438979,-0.0005195827106945217,0.0326209976196289,0.12195464706420897,9.696367086029053
248842132407125,-0.001883387565612793,-0.001555818715132773,0.0011435613268986344,0.030974983978271482,0.12629413757324218,9.696067810821532
248842142379125,-0.0017752632265910506,-0.0021281319204717875,0.0014927018200978637,0.03486556167602539,0.12808978881835936,9.703400053405762
248842152351125,-0.002112952060997486,-0.0014737932942807674,0.0010812433902174234,0.03501519927978516,0.13198036651611328,9.699958388519287
248842162324125,-0.002110288944095373,-0.0018383801216259599,0.0009784454014152288,0.017956512451171875,0.13437456817626953,9.696815998840332
248842172296125,-0.004829642828553915,-0.002269812161102891,0.001350755337625742,0.033818098449707026,0.14320318679809568,9.695918173217773
248842182268125,-0.003142263740301132,-0.0028780782595276833,2.956108801299706e-05,0.033518823242187495,0.1258452247619629,9.693823246765136
248842192240125,-0.00224957219325006,-0.0027654264122247696,-0.0005869606975466013,0.026036943054199218,0.1261444999694824,9.714622873687743
248842202212125,-0.003206445835530758,-0.0035241609439253807,-0.0005699164466932416,0.027234043884277342,0.12524667434692383,9.703250415802001
248842212184125,-0.0005765743553638458,-0.0033364081755280495,0.001219461439177394,0.03247136001586914,0.14724340209960937,9.695469260406494
248842222157125,-0.002112952060997486,-0.00395745737478137,0.0019225359428673983,0.029927520751953124,0.14425065002441406,9.711480484008788
248842232129125,-0.004001133143901825,-0.0010788465151563287,0.0008503473363816738,0.046537294769287106,0.13198036651611328,9.706542443084716
248842242101125,-0.003338006092235446,-0.0012253203894942999,-0.0007387608638964593,0.04369418029785156,0.12150573425292968,9.686491004180908
248842252073125,-0.002490321872755885,-0.0019345202017575502,-0.0006095975404605269,0.03037643356323242,0.11911153259277343,9.692476508331298
248842262045125,-0.000904409505892545,-0.0009941579774022102,0.0011832424206659198,0.028880057525634766,0.13033435287475587,9.694122521972655
248842272018125,-0.0031302794814109802,-0.0012503541074693203,0.0006301039247773588,0.04399345550537109,0.131531453704834,9.69142904510498
248842281990125,-0.0007329019135795534,-0.0015102786710485816,0.0020820593927055597,0.03995324020385742,0.12629413757324218,9.708637369537353
248842291962125,-0.00430180411785841,-0.0029646309558302164,0.002570749493315816,0.03336918563842773,0.131531453704834,9.69068085708618
248842301934125,-0.0034349451307207346,-0.003970240708440542,0.0012178635224699974,0.030825346374511717,0.13257891693115234,9.689783031463623
248842311906125,-0.003251719754189253,-0.002326537622138858,0.0007121292874217033,0.02977788314819336,0.13198036651611328,9.688885205841064
248842321878125,-0.00261841993778944,-0.0028493159916251898,0.00031185615807771683,0.03202244720458984,0.13093290328979493,9.69068085708618
248842331851125,-0.0025574336759746075,-0.0013185309944674373,-0.00036192359402775764,0.030226795959472655,0.13003507766723632,9.70369932861328
248842341823125,-0.0018461032304912806,-0.0024525050539523363,0.0018908443162217736,0.029478607940673827,0.13347674255371092,9.696367086029053
248842351795125,-0.003078880487009883,-0.0005616606795229018,0.0008042746339924634,0.022744915771484374,0.14245499877929688,9.686491004180908
248842361767125,-0.0024852619972079992,-0.001023452845402062,0.001440237509086728,0.03411737365722656,0.143652099609375,9.695618898010252
248842371739125,-0.0024317323695868254,-0.0024884575977921486,0.0008796420879662037,0.04474164352416992,0.12509703674316405,9.692626145935058
248842381711125,-0.003492469433695078,-0.0013012205017730594,0.00024101608141791075,0.04115034103393554,0.1409586227416992,9.70504606704712
248842391684125,-0.0008173241512849927,-0.0013946974650025368,0.0004655205411836505,0.02858078231811523,0.13407529296874998,9.706093530273437
248842401656125,-0.0015640745405107737,-0.0020389161072671413,0.0002436792419757694,0.03441664886474609,0.1352723937988281,9.696815998840332
248842411628125,-0.003460245206952095,-0.0017984326696023345,0.0015792545164003968,0.03007715835571289,0.14200608596801756,9.694721072387695
248842421600125,-0.0018037590198218822,-0.002686596941202879,-0.0003885551996063441,0.03037643356323242,0.1336263801574707,9.701454764556884
248842431572125,-0.0028549085836857557,-0.0027198863681405783,0.001961418194696307,0.02902969512939453,0.1327285545349121,9.689334118652344
248842441544125,-0.0036783581599593163,-0.0029784792568534613,0.0011435613268986344,0.039055414581298825,0.11731588134765625,9.695319622802733
248842451517125,-0.003037335118278861,-0.002597114769741893,0.00025592977181077003,0.036062662506103516,0.11686696853637694,9.699958388519287
248842461489125,-0.0020423782989382744,-0.002304965863004327,0.0009411611245013773,0.03127425918579101,0.1331774673461914,9.687239192199707
248842471461125,-0.002403769176453352,-0.001097755040973425,0.0013571468880400062,0.03202244720458984,0.13691840744018555,9.696067810821532
248842481433125,-0.003123888047412038,-0.0015611450653523207,0.000248472933890298,0.03591302490234375,0.13033435287475587,9.707140993499756
248842491405125,-0.0038541266694664955,-0.0009480853332206607,-8.468852320220321e-05,0.030526071166992186,0.11956044540405272,9.690082306671142
248842501378125,-0.0035332157276570797,-0.0018439727136865258,0.0014397049089893699,0.04249707946777344,0.13063362808227538,9.693972884368895
248842511350125,-0.002944657113403082,-0.002459961920976639,0.0002937466779258102,0.03621230010986328,0.1253963119506836,9.69786346206665
248842521322125,-0.003287672298029065,-0.002379800658673048,0.00148125016130507,0.045938744354248044,0.1279401512145996,9.6917283203125
248842531294125,-0.0019036275334656239,-0.0011507519520819187,0.001404018490575254,0.04115034103393554,0.136619132232666,9.701454764556884
248842541266125,-0.0028461201582103968,-0.0025238776579499245,0.0011808456620201468,0.03037643356323242,0.1197100830078125,9.697264911651612
248842551239125,-0.00279125920496881,-0.0015512913232669234,0.0007739146240055561,0.038756139373779294,0.12210428466796874,9.696067810821532
248842561211125,-0.002186721656471491,-0.0005211806274019182,0.0015667376574128866,0.04638765716552734,0.136619132232666,9.69187795791626
248842571183125,-0.0016532903537154198,-0.001130778226070106,0.001145425601862371,0.0282815071105957,0.13916297149658202,9.695469260406494
248842581155125,-0.002861832967028022,-0.0026549051981419325,0.0006697850185446441,0.02798223190307617,0.1249473991394043,9.71013374557495
248842591127125,-0.00353428116068244,-0.0014921691035851836,0.002095108851790428,0.026036943054199218,0.1279401512145996,9.694421797180174
248842601099125,-0.002046372974291444,-0.0011749867117032409,0.0016596820205450058,0.034715924072265626,0.1292868896484375,9.68499462814331
248842611071875,-0.002770752878859639,-0.001660480978898704,-0.0004799016169272363,0.027682956695556638,0.12449848632812499,9.698611650085448
248842621043875,-0.001672198879532516,-0.0030277478508651257,0.0019313243683427572,0.03815758895874023,0.13033435287475587,9.706093530273437
248842631015875,-0.0032115059439092875,-0.003600327530875802,0.0002767024270724505,0.035464112091064454,0.13377601776123046,9.696367086029053
248842640987875,-0.003485811408609152,-0.002543851500377059,0.0009246495319530368,0.032920272827148434,0.1318307289123535,9.698611650085448
248842650959875,-0.0025891251862049103,-0.002160090021789074,0.0014927018200978637,0.02424129180908203,0.13422493057250975,9.699659113311768
248842660931875,-0.001728924224153161,-0.002682602033019066,0.0019648801535367966,0.024390929412841794,0.1444002876281738,9.694421797180174
248842670904875,-0.0033100428991019726,-0.0020935109350830317,0.0006460828590206802,0.033818098449707026,0.13736732025146484,9.700108026123047
248842680876875,-0.002127333078533411,-0.00316010694950819,-1.3582121027866378e-05,0.041748891448974604,0.13422493057250975,9.690381581878661
248842690848875,-0.002123604528605938,-0.0018943065078929067,0.00046845004544593394,0.046238019561767575,0.13392565536499024,9.695768535614013
248842700820875,-0.0016684704460203648,-0.0024474449455738068,0.0012516856659203768,0.031124621582031248,0.1304839904785156,9.682750064086914
248842710792875,-0.0022234732750803232,-0.0017100156983360648,0.0017707358347252011,0.03202244720458984,0.13392565536499024,9.683049339294433
248842720765875,-0.0028122980147600174,-0.001907089608721435,0.0014764565275982022,0.023942016601562498,0.12554594955444334,9.694721072387695
248842730737875,-0.002825347473844886,-0.0020117517560720444,0.0012996225850656629,0.03396773605346679,0.13602058181762694,9.687538467407226
248842740709875,-0.0028706213925033808,-0.0026873957831412554,0.00023755396250635386,0.031872809600830075,0.13257891693115234,9.706243167877197
248842750681875,-0.0012053466634824872,-0.0015568839153274894,0.0014053500490263104,0.042048166656494135,0.13302782974243163,9.695319622802733
248842760653875,-0.0020122844725847244,-0.002385925967246294,0.002156095113605261,0.031872809600830075,0.13213000411987305,9.683797527313232
248842770625875,-0.0026346652302891016,-0.0022389194928109646,0.0004242415598127991,0.028880057525634766,0.13332710494995118,9.683947164916992
248842780598875,-0.002017344580963254,-0.001969407545402646,0.0018370485631749034,0.030526071166992186,0.13123217849731444,9.692027595520019
248842790570875,-0.003906058380380273,-0.002353701740503311,0.0019795275293290615,0.037708676147460936,0.14170681076049804,9.696367086029053
248842800542875,-0.003594202222302556,-0.0007691209320910275,0.001371527905575931,0.04444236831665039,0.13287819213867186,9.69786346206665
248842810514875,-0.0037468012887984514,-0.0035324168857187033,-9.00148443179205e-05,0.042048166656494135,0.14425065002441406,9.679757312011718
248842820486875,-0.003457848448306322,-0.003251453395932913,0.0008559399866499007,0.03621230010986328,0.12853870162963865,9.686790279388427
248842830459875,-0.0019140138756483793,-0.0020748688839375973,0.0009217200567945838,0.03336918563842773,0.1327285545349121,9.690231944274903
248842840431875,-0.0032237565610557795,-0.0026961842086166143,0.000928377965465188,0.03591302490234375,0.12030863342285156,9.693972884368895
248842850403875,-0.0025473134592175484,-0.003899666713550687,-0.0007419566973112524,0.029328970336914062,0.13557166900634765,9.681253688049315
248842860375875,-0.0037883466575294733,-0.0025744778104126453,0.002281263703480363,0.03860650177001953,0.13467384338378904,9.684246440124511
248842870347875,-0.0021992383990436792,-0.0023494407068938017,0.0009986853692680597,0.03651157531738281,0.12300211029052734,9.688735568237304
248842880319875,-0.0025273398496210575,-0.0008471515611745417,0.000428502622526139,0.031124621582031248,0.11866261978149413,9.705195704650878
248842890292875,-0.0035987296141684055,-0.003486876841634512,0.0007097324123606086,0.035763387298583985,0.13078326568603516,9.714173960876463
248842900264875,-0.002283926820382476,-0.0009171926649287343,0.0006628608098253608,0.02977788314819336,0.13721768264770506,9.701005851745604
248842910236875,-0.0005635248962789774,-0.003739610780030489,0.0004471447318792343,0.0383072265625,0.1322796417236328,9.705494979858399
248842920208875,-0.0027393274940550327,-0.0032589102629572153,0.0010274475207552314,0.03501519927978516,0.13078326568603516,9.693374333953857
248842930180875,-0.003197923768311739,-0.00484402384608984,6.364954606397077e-05,0.035464112091064454,0.13213000411987305,9.70354969100952
248842940153875,-0.0021462414879351854,-0.0025829998776316643,0.0007187871960923076,0.03127425918579101,0.13482348098754882,9.692925421142577
248842950125875,-0.0022479742765426636,-0.0007129282457754016,0.0002556634717620909,0.03725976333618164,0.1301847152709961,9.686790279388427
248842960097875,-0.001136104459874332,-0.002401106059551239,0.0012090750969946384,0.027383681488037107,0.13976152191162108,9.706392805480956
248842970069875,-0.0026146916206926107,-0.0010245180455967784,0.0018016285030171275,0.04444236831665039,0.1388636962890625,9.700108026123047
248842980041875,-0.001660214620642364,-0.0020010992884635925,-4.900216299574822e-05,0.03995324020385742,0.1322796417236328,9.699359838104247
248842990013875,-0.002636529505252838,-0.0009771138429641724,0.00019574233738239855,0.03067570877075195,0.1283890640258789,9.694870709991454
248842999986875,-0.002323341788724065,-0.0022863238118588924,0.0008197209681384265,0.030825346374511717,0.1258452247619629,9.695768535614013
248843009958875,-0.0018777948571369052,-0.0013289173366501927,0.00033342777169309556,0.0326209976196289,0.13676876983642577,9.693673609161376
248843019930875,-0.002487658755853772,-0.002258360618725419,0.00028868665685877204,0.025887305450439452,0.13033435287475587,9.69127940750122
248843029902875,-0.0030272151343524456,-0.0012546151410788298,0.0027049726340919733,0.04144961624145507,0.13033435287475587,9.698611650085448
248843039874875,-0.002348109148442745,-0.0031883365008980036,0.003052248852327466,0.04474164352416992,0.1253963119506836,9.696067810821532
248843049847875,-0.0016024239594116807,-0.0014737932942807674,0.0014732606941834092,0.042646717071533204,0.12285247268676758,9.69083049468994
248843059819875,-0.0030985879711806774,-0.002103098202496767,0.0013116068439558148,0.03920505218505859,0.1484405029296875,9.69801309967041
248843069791875,-0.0033715618774294853,-0.0024311996530741453,0.0022330605424940586,0.0430956298828125,0.14006079711914063,9.688436293029785
248843079763875,-0.0028903286438435316,-0.0024234766606241465,-5.9388490626588464e-05,0.0430956298828125,0.13138181610107422,9.699359838104247
248843089735875,-0.002805107505992055,-0.002359294332563877,0.0004474110610317439,0.04189852905273437,0.13467384338378904,9.703100778198241
248843099707875,-0.0016279903938993812,-0.0035332157276570797,0.0009712548344396055,0.033518823242187495,0.13347674255371092,9.706093530273437
248843109680875,-0.0023166837636381388,-0.001985120354220271,0.0026051041204482317,0.02154781494140625,0.12330138549804687,9.68469535293579
248843119652875,-0.0024234766606241465,-0.0021947110071778297,-0.0005811017472296953,0.028730419921875,0.14679448928833008,9.710881933593749
248843129624875,-0.00166633992921561,-0.00239205127581954,0.0004423510399647057,0.023792378997802732,0.12599486236572266,9.702202952575684
248843139596875,-0.003693005535751581,-0.0010705908061936498,0.0022514364682137966,0.03067570877075195,0.1222539222717285,9.702202952575684
248843149568875,-0.002877012826502323,-0.0013321131700649858,0.0012580773327499628,0.025438392639160156,0.1396118843078613,9.699659113311768
248843159541875,-0.0018692727899178863,-0.0015965650090947747,-0.0005062668933533132,0.03142389678955078,0.1336263801574707,9.694721072387695
248843169513875,-0.0021667478140443563,-0.001686579897068441,0.0017590179340913892,0.03067570877075195,0.13691840744018555,9.696067810821532
248843179485875,-0.003210440743714571,-0.0015931029338389635,0.0014330470003187656,0.040701428222656245,0.13587094421386717,9.68529390335083
248843189457875,-0.0026136261876672506,-0.0005395564367063344,0.0014237258583307266,0.03725976333618164,0.14185644836425781,9.695618898010252
248843199429875,-0.0014146711910143495,-0.0011435613268986344,0.0025952504947781563,0.031573534393310544,0.13991115951538086,9.69786346206665
248843209402875,-0.0016666061710566282,-0.003870904678478837,0.00021225394448265433,0.03561374969482422,0.14021043472290037,9.688137017822266
248843219374875,-0.0037023264449089766,-0.0035486621782183647,0.0006668555433861911,0.03232172241210937,0.13302782974243163,9.689633393859863
248843229346875,-0.0025387913919985294,-0.002579005202278495,0.0007653924985788763,0.031124621582031248,0.13811550827026367,9.693972884368895
248843239318875,-0.0021379857789725065,-0.0013816480059176683,0.0022295983508229256,0.02858078231811523,0.13168109130859373,9.69187795791626
248843249290875,-0.0009725864510983229,-0.002223206916823983,0.0012141350889578462,0.032920272827148434,0.12719196319580078,9.706243167877197
248843259262875,-0.004066114313900471,-0.0031169636640697718,0.0009217200567945838,0.03336918563842773,0.12464812393188476,9.699060562896728
248843269235875,-0.002376604825258255,-0.0019680759869515896,0.000401604687795043,0.02483984222412109,0.13003507766723632,9.677512747955321
248843279207875,-0.0028005801141262054,-0.0027891285717487335,0.0015717976493760943,0.03920505218505859,0.13377601776123046,9.689483756256102
248843289179875,-0.0018431737553328276,-0.001487641828134656,0.0013558153295889497,0.03800795135498047,0.13676876983642577,9.693823246765136
248843299151875,-0.002167813014239073,-0.003163569141179323,0.001487109111621976,0.04534019393920898,0.1375169578552246,9.693374333953857
248843309123875,-0.004211789462715387,-0.0009566074586473405,0.0006764429272152483,0.037110125732421874,0.12689268798828124,9.69142904510498
248843319096875,-0.0019915117882192135,-0.0020245350897312164,0.0009749832679517567,0.03441664886474609,0.14006079711914063,9.71581997451782
248843329068875,-0.0017715347930788994,-0.0015904398169368505,0.0016639430541545153,0.03920505218505859,0.12868833923339842,9.707889181518555
248843339040875,-0.0032439965289086103,-0.000731836655177176,0.0003456783015280962,0.03007715835571289,0.13826514587402344,9.690082306671142
248843349012875,-0.0025710156187415123,-0.002566488226875663,0.0010586065473034978,0.03561374969482422,0.1283890640258789,9.694870709991454
248843358984875,-0.00242187874391675,-0.001573928166180849,0.0013688647886738181,0.04115034103393554,0.11641805572509765,9.692925421142577
248843368957875,-0.002124669961631298,-0.002109489869326353,0.0002793656021822244,0.033818098449707026,0.12898761444091797,9.693823246765136
248843378929875,-0.002532133599743247,-0.0032386700622737408,0.0007605988066643476,0.02558803024291992,0.1253963119506836,9.706841718292235
248843388901875,-0.004079164005815983,-0.0017355820164084435,0.0004676510870922357,0.03247136001586914,0.1406593475341797,9.692626145935058
248843398873875,-0.003242398612201214,-0.00304638990201056,0.0011443602852523327,0.01810615005493164,0.13302782974243163,9.706841718292235
248843408845875,-0.0015747271245345473,-0.0004572647449094802,0.00012383698776829988,0.028880057525634766,0.12958616485595703,9.696217448425292
248843418817875,-0.00296303303912282,-0.0021888520568609238,0.0006439523422159255,0.03277063522338867,0.15292963104248045,9.702502227783203
248843428790875,-0.0013915016315877438,-0.002823483431711793,8.894957863958552e-05,0.03980360260009765,0.13422493057250975,9.714622873687743
248843438762875,-0.0022027005907148123,-0.0023036343045532703,0.0020189424976706505,0.04219780426025391,0.1288379768371582,9.711929396820068
248843448734875,-0.002627208363264799,-0.002614957746118307,-0.00043809000635519624,0.03501519927978516,0.1304839904785156,9.692326870727538
248843458706875,-0.002913498319685459,-0.0013464941876009107,0.001654355670325458,0.03890577697753906,0.12764087600708007,9.685892453765868
248843468678875,-0.0031814121175557375,-0.0015632755821570754,0.0008625978953205049,0.044292730712890624,0.1505354293823242,9.687388829803465
248843478651875,-0.00307568465359509,-0.003227218519896269,0.0011408982099965215,0.04115034103393554,0.13347674255371092,9.688585930633545
248843488623875,-0.0017502295086160302,-0.001719603082165122,0.0006578007596544921,0.0383072265625,0.13991115951538086,9.698611650085448
248843498595875,-0.002150236163288355,-0.0029342707712203264,0.0014543522847816348,0.040701428222656245,0.12898761444091797,9.69801309967041
248843508567875,-0.001714010490104556,-0.0016434367280453444,0.0017835189355537295,0.0234931037902832,0.13437456817626953,9.689483756256102
248843518539875,-0.002013616031035781,-0.002906840294599533,0.001002680161036551,0.03172317199707031,0.1331774673461914,9.694122521972655
248843528512875,-0.0040826257318258286,-0.0020184097811579704,0.0016407734947279096,0.02693476867675781,0.12853870162963865,9.693224696350097
248843538484875,-0.0018871158827096224,-4.394215648062527e-05,-0.00039281626231968403,0.028730419921875,0.131531453704834,9.69831237487793
248843548456875,-0.0010641991393640637,-0.003051982494071126,-0.00032570460462011397,0.03411737365722656,0.1336263801574707,9.687089554595946
248843558428875,-0.0025739450938999653,-0.0016492956783622503,0.0016623451374471188,0.039354689788818356,0.13242927932739257,9.686640641784667
248843568400875,-0.002510561840608716,-0.0018719359068199992,0.0029731530230492353,0.029628245544433593,0.1258452247619629,9.705794255065918
248843578372875,-0.0026487798895686865,-0.0032288164366036654,0.0007962851668708026,0.03531447448730469,0.14290391159057617,9.692177233123779
248843588345875,-0.0022863238118588924,-0.0007997472421266139,3.328951424919069e-05,0.02977788314819336,0.12734160079956053,9.692326870727538
248843598317875,-0.0028210864402353764,-0.002326803747564554,0.0007648598402738571,0.033518823242187495,0.14155717315673827,9.709535195159912
248843608290250,-0.0025385250337421894,-0.0012500877492129803,0.0011555455857887864,0.043245267486572266,0.12659341278076172,9.696067810821532
248843618262250,-0.0002849582233466208,-0.0023289343807846308,0.0006197175825946033,0.04938040924072265,0.12913725204467771,9.70354969100952
248843628234250,-0.002380866091698408,-0.0016397082945331931,0.002569417702034116,0.03681085052490234,0.14155717315673827,9.699808750915526
248843638207250,-0.004296744242310524,-0.002115615177899599,0.00023169501218944788,0.03486556167602539,0.12105682144165038,9.70369932861328
248843648179250,-0.0018959043081849813,-0.001975532853975892,0.00130920996889472,0.031872809600830075,0.13467384338378904,9.69112976989746
248843658151250,-0.0015307849971577525,-0.0029462550301104784,0.002284725895151496,0.04683656997680664,0.12644377517700195,9.699210200500488
248843668123250,-0.0014937670202925801,-0.0004623247659765184,0.0007643272401764989,0.04668693237304687,0.13946224670410157,9.700556938934326
248843678095250,-0.0018226674292236567,5.0600061513250694e-05,0.000651675509288907,0.03890577697753906,0.12689268798828124,9.698162737274169
248843688068250,-0.0011060107499361038,-0.0006482133758254349,-0.00037976677413098514,0.029478607940673827,0.12943652725219726,9.686341366577148
248843698040250,-0.00016165387933142483,-0.002025866648182273,0.0014197311829775572,0.03621230010986328,0.12509703674316405,9.687239192199707
248843708012250,-0.0016354472609236836,-0.0011837751371785998,-0.00033875409280881286,0.03486556167602539,0.1336263801574707,9.692626145935058
248843717984250,-0.0002426139690214768,0.0006375607335940003,-0.00023302659974433482,0.0282815071105957,0.12689268798828124,9.702801502990722
248843727956250,-0.002302036387845874,-0.002213619416579604,0.001985120354220271,0.02633621826171875,0.1283890640258789,9.70354969100952
248843737929250,-0.0028455876745283604,-0.001121989800594747,0.0028778119012713432,0.028431144714355466,0.13646949462890623,9.682151513671874
248843747901250,-0.0019467707024887204,-0.0026551715563982725,0.0010759170399978757,0.02902969512939453,0.13542203140258788,9.688286655426024
248843757873250,-0.0007422229973599315,-0.002665824256837368,0.002710299100726843,0.03456628646850586,0.1253963119506836,9.710433020782471
248843767845250,-0.0021470405627042055,-0.003425357863306999,-0.001282312092371285,0.023044190979003905,0.1331774673461914,9.689783031463623
248843777817250,-0.001368598430417478,-0.0020684772171080112,0.00063356600003317,0.031124621582031248,0.1484405029296875,9.702352590179443
248843787789250,-0.0011741877533495426,-0.0013454289874061942,0.00036139096482656896,0.04803367080688476,0.13242927932739257,9.706243167877197
248843797762250,-0.0023957795929163694,-0.002270344877615571,0.00247594085521996,0.042646717071533204,0.13003507766723632,9.695469260406494
248843807734250,-0.0017931063193827868,-0.00040320257539860904,0.000600809114985168,0.030526071166992186,0.13871405868530273,9.685892453765868
248843817706250,-0.0007765777409076691,-0.0015843145083636045,-0.00017337177996523678,0.033219548034667964,0.12868833923339842,9.701454764556884
248843827678250,-0.0036458675749599934,-0.002382996492087841,0.0005736448802053928,0.028431144714355466,0.12868833923339842,9.685443540954589
248843837650250,-0.0016445019282400608,-0.002316950121894479,0.0003203782835043967,0.033219548034667964,0.13587094421386717,9.69112976989746
248843847623250,-0.004018177278339863,-0.001677525113336742,0.0009177253232337534,0.032920272827148434,0.1470937644958496,9.71013374557495
248843857595250,-0.001184307737275958,-0.0025100293569266796,0.000595216522924602,0.030226795959472655,0.13332710494995118,9.700407301330566
248843867567250,-0.0016791230300441384,-0.0017222663154825568,0.0006559365428984165,0.04399345550537109,0.1274912384033203,9.710881933593749
248843877539250,-0.0033246902748942375,-0.0027601001784205437,0.001121723442338407,0.04578910675048828,0.12868833923339842,9.702651865386962
248843887511250,-0.003221359569579363,-0.0024498419370502234,0.0001102548703784123,0.02902969512939453,0.13078326568603516,9.69831237487793
248843897484250,-0.0019526296528056264,-0.0030269487760961056,-0.0001984054979402572,0.03516483688354492,0.12180500946044921,9.689184481048583
248843907456250,-0.0011925635626539588,-0.0032320122700184584,0.0002466087171342224,0.03890577697753906,0.13392565536499024,9.692476508331298
248843917428250,-0.003037601476535201,0.0005467469454742968,0.001586178783327341,0.03755903854370117,0.14260463638305662,9.692925421142577
248843927400250,-0.003162770066410303,-0.0011438276851549745,0.001642637769691646,0.02977788314819336,0.13302782974243163,9.706093530273437
248843937372250,-0.0010213222121819854,-0.0019885823130607605,-5.752427750849165e-05,0.0282815071105957,0.13901333389282225,9.699060562896728
248843947345250,-0.003212304785847664,-0.0014674017438665032,0.0010964233661070466,0.04519055633544922,0.1352723937988281,9.692476508331298
248843957317250,-0.0014215953415259719,-0.0015939018921926618,0.0007669904152862728,0.023942016601562498,0.12868833923339842,9.69756418685913
248843967289250,-0.001588841900229454,-0.002294047037139535,0.0003153182624373585,0.021697452545166016,0.12629413757324218,9.693823246765136
248843977261250,-0.002972087822854519,-0.002095108851790428,0.001538241864182055,0.02124853973388672,0.13033435287475587,9.699808750915526
248843987233250,-0.0021667478140443563,-0.0008862999966368079,-0.00012916330888401717,0.03007715835571289,0.13766659545898435,9.692177233123779
248843997205250,-0.002264485927298665,-0.0017030915478244424,0.0016378440195694566,0.03486556167602539,0.13691840744018555,9.690531219482422
248844007178250,-0.0029843382071703672,-0.0021015002857893705,-8.069378236541525e-05,0.04339490509033203,0.13078326568603516,9.695020347595214
248844017150250,-0.001204547705128789,-0.002359294332563877,-0.00047377636656165123,0.053719899749755856,0.12808978881835936,9.701155489349365
248844027122250,-0.0025039040483534336,-0.0013949638232588768,-0.00039947417099028826,0.035464112091064454,0.13557166900634765,9.687239192199707
248844037094250,-0.002252501668408513,-0.0015970977256074548,0.0003028014034498483,0.022445640563964843,0.1406593475341797,9.696217448425292
248844047067250,-0.0020271982066333294,-0.0013206616276875138,0.001148088718764484,0.03681085052490234,0.13736732025146484,9.692027595520019
248844057039250,-0.003858121344819665,-0.0018730012234300375,0.0009784454014152288,0.028730419921875,0.1466448516845703,9.693972884368895
248844067011250,-0.0014732606941834092,-0.0017843178939074278,0.0008916263468563557,0.03486556167602539,0.13631985702514648,9.689932669067382
248844076983250,-0.002831206424161792,-0.001958488719537854,0.001198955113068223,0.026186580657958983,0.12719196319580078,9.682301151275635
248844086955250,-0.0029292108956724405,-0.0034269557800143957,0.0018876485992223024,0.03336918563842773,0.14200608596801756,9.69801309967041
248844096927250,-0.004546815063804388,-0.0012277172645553946,-6.285060226218775e-05,0.03516483688354492,0.13377601776123046,9.693673609161376
248844106900250,-0.00299286050722003,-0.0011688614031299949,0.0010002832859754562,0.02798223190307617,0.13257891693115234,9.701754039764404
248844116872250,-0.0017832526937127113,-0.0018463695887476206,0.0012362393317744136,0.030526071166992186,0.1361702194213867,9.708787007141114
248844126844250,-0.0021672805305570364,-0.001764344167895615,0.0015962987672537565,0.027234043884277342,0.1370680450439453,9.699659113311768
248844136816250,-0.0016192019684240222,-0.0036301547661423683,0.0021025657188147306,0.03037643356323242,0.13198036651611328,9.707290631103515
248844146788250,-0.002560629276558757,-0.002436259761452675,0.0018825886072590947,0.031872809600830075,0.13257891693115234,9.692626145935058
248844156761250,-0.0014916365034878254,-0.0015222628135234118,0.001823466387577355,0.02528875503540039,0.1327285545349121,9.699509475708007
248844166733250,-0.0017869811272248626,-0.0037015276029706,-0.0004753742541652173,0.02977788314819336,0.13347674255371092,9.695918173217773
248844176705250,-0.0030181603506207466,-0.002267149044200778,0.0010351707460358739,0.049530046844482416,0.148739778137207,9.696516723632811
248844186677250,-0.0022652847692370415,-0.0026053704787045717,0.0006101301987655461,0.03561374969482422,0.1388636962890625,9.702651865386962
248844196649250,-0.0031105722300708294,-0.0014455638593062758,5.219795639277436e-05,0.042646717071533204,0.13347674255371092,9.707440268707275
248844206622250,-0.003977430984377861,-0.003213636577129364,0.001303351018577814,0.03815758895874023,0.131531453704834,9.699808750915526
248844216594250,-0.0033720945939421654,-0.0015052186790853739,0.0013949638232588768,0.02633621826171875,0.12300211029052734,9.696815998840332
248844226566250,-0.002859169617295265,-0.003316967049613595,0.0011488876771181822,0.032920272827148434,0.13721768264770506,9.69741454925537
248844236538250,-0.001341700553894043,-0.0013014868600293994,0.0019632822368294,0.03456628646850586,0.13033435287475587,9.69846201248169
248844246510250,-0.0032091091852635145,-0.0025563682429492474,0.0006173207075335085,0.03067570877075195,0.14110826034545898,9.689184481048583
248844256483250,-0.0033563817851245403,-0.0021017666440457106,0.002409095410257578,0.0378583137512207,0.1414075355529785,9.692626145935058
248844266455250,-0.0036216326989233494,-0.00199337606318295,0.00130894361063838,0.0326209976196289,0.12823942642211913,9.701305126953125
248844276427250,-0.002573146251961589,-0.0031518512405455112,0.001281779375858605,0.03441664886474609,0.1370680450439453,9.706991355895996
248844286399250,-0.0018530274974182248,-0.0005190501105971634,0.0016996293561533093,0.030526071166992186,0.14215572357177733,9.700257663726806
248844296371250,-0.004541754722595215,-0.0034117756877094507,0.001511876587755978,0.017357962036132813,0.12689268798828124,9.690531219482422
248844306344250,-0.004052266012877226,-0.0035843485966324806,0.00021145498612895608,0.019003975677490233,0.14110826034545898,9.693224696350097
248844316316250,-0.0032916669733822346,-0.0011848403373733163,0.0011587414192035794,0.0474351203918457,0.1379658706665039,9.693075058746338
248844326288250,-0.002966228872537613,0.00017949705943465233,-0.0006860303110443056,0.03800795135498047,0.13257891693115234,9.67856021118164
248844336260250,-0.002926813904196024,-0.0012655340833589435,0.0013379721203818917,0.04144961624145507,0.12464812393188476,9.688585930633545
248844346232250,-0.002709766384214163,-0.0011408982099965215,0.0010905644157901406,0.02902969512939453,0.12644377517700195,9.679757312011718
248844356205250,-0.002823483431711793,-0.0009558085002936423,0.0016237293602898717,0.034715924072265626,0.13766659545898435,9.692626145935058
248844366177250,-0.0020639498252421618,-0.0023497070651501417,0.00043356261448934674,0.04189852905273437,0.13572130661010742,9.69127940750122
248844376149250,-0.0019920445047318935,-0.0012117383303120732,0.000529436394572258,0.02858078231811523,0.14260463638305662,9.701454764556884
248844386121250,-0.0014056164072826505,-0.0024799355305731297,0.0013203952694311738,0.037708676147460936,0.14185644836425781,9.69831237487793
248844396093250,-0.0021457087714225054,-0.004640025552362204,0.00042024682625196874,0.031124621582031248,0.12240355987548827,9.693224696350097
248844406066250,-0.002918291836977005,-0.003745469730347395,-0.00031798143754713237,0.014814122772216796,0.11477204208374023,9.703100778198241
248844416038250,-0.0028996497858315706,-0.004088218789547682,0.000538491178303957,0.01631049880981445,0.12958616485595703,9.702053314971923
248844426010250,-0.002540922025218606,-0.0038599856197834015,0.0007392935222014785,0.023942016601562498,0.12659341278076172,9.689633393859863
248844435982250,-0.0028003137558698654,-0.002511627273634076,0.0017068199813365936,0.033219548034667964,0.1409586227416992,9.698162737274169
248844445954250,-0.002175003755837679,-0.0011430287268012762,0.0013068130938336253,0.0282815071105957,0.14918869094848633,9.694870709991454
248844455927250,-0.0025278725661337376,-0.0022540995851159096,-0.0024687503464519978,0.029628245544433593,0.13302782974243163,9.695768535614013
248844465899250,-0.0018463695887476206,-0.0015952334506437182,0.0015949672088027,0.03845686416625976,0.12389993591308593,9.683797527313232
248844475871250,-0.0029284118209034204,-0.000333161442540586,0.00101173494476825,0.033518823242187495,0.1253963119506836,9.706991355895996
248844485843250,-0.003765709698200226,-0.002083124592900276,0.0027917916886508465,0.033818098449707026,0.13691840744018555,9.700108026123047
248844495815250,-0.0029467877466231585,-0.0038424087688326836,-0.0001840244367485866,0.040402153015136714,0.1349731185913086,9.706542443084716
248844505788250,-0.0028607675340026617,-0.003204581793397665,0.0008673915872350335,0.028431144714355466,0.14544775085449219,9.702202952575684
248844515760250,-0.0017622136510908604,-0.0009414274245500565,0.0012370382901281118,0.04967968444824218,0.14679448928833008,9.698611650085448
248844525732250,-0.004710332956165075,-0.0025044367648661137,0.0014479606179520488,0.04219780426025391,0.1253963119506836,9.701305126953125
248844535704250,-0.004775580484420061,-0.0020325244404375553,0.0011896340874955058,0.025139117431640625,0.14080898513793944,9.700407301330566
248844545676250,-0.002466353354975581,-0.0007305050967261195,0.0012024171883240342,0.036062662506103516,0.14589666366577148,9.700556938934326
248844555649250,-0.0030186930671334267,-0.002350505907088518,0.0008961536805145442,0.03067570877075195,0.12629413757324218,9.704746791839598
248844565621250,-0.0021403825376182795,-0.0018738001817837358,0.0010032127611339092,0.033818098449707026,0.1279401512145996,9.688735568237304
248844575593250,-0.0022423816844820976,-0.0034229608718305826,0.001764077926054597,0.038756139373779294,0.12734160079956053,9.695319622802733
248844585565250,-0.002609631512314081,-0.0026381274219602346,0.0016215987270697951,0.031573534393310544,0.14290391159057617,9.700706576538085
248844595537250,-0.0016261261189356446,-0.002228533150628209,0.0018785938154906034,0.03920505218505859,0.1361702194213867,9.688286655426024
248844605510250,-0.002305764937773347,-0.002204564632847905,-0.0004223773430567235,0.02454056701660156,0.13542203140258788,9.706392805480956
248844615482292,-0.002433596644550562,-0.00261841993778944,0.0008825715631246567,0.03172317199707031,0.13422493057250975,9.7039986038208
248844625454292,-0.0032860743813216686,-0.0011310444679111242,0.0012889700010418892,0.032172084808349606,0.12734160079956053,9.69187795791626
248844635426292,-0.0037292244378477335,-0.0004450142150744796,0.001121457084082067,0.03815758895874023,0.12913725204467771,9.701155489349365
248844645398292,-0.003567836945876479,-0.001856489572674036,0.0025502429343760014,0.029927520751953124,0.13287819213867186,9.689932669067382
248844655371292,-0.002354234457015991,-0.0010817759903147817,0.0023552996572107077,0.035464112091064454,0.1288379768371582,9.694122521972655
248844665343292,-0.0013017531018704176,-0.0013097425689920783,0.0008293083519674838,0.03127425918579101,0.12988544006347655,9.700556938934326
248844675315292,-0.0016849819803610444,-0.00279019377194345,0.0011121360585093498,0.03277063522338867,0.13287819213867186,9.693224696350097
248844685287292,-0.0027228158432990313,-0.003980626817792654,0.001243962557055056,0.03965396499633789,0.13168109130859373,9.710433020782471
248844695259292,-0.001980859087780118,-0.004039216320961714,0.0008194546680897474,0.03007715835571289,0.14694412689208983,9.715670336914062
248844705232292,-0.0024586303625255823,-0.0020359866321086884,0.0018903117161244154,0.023642741394042967,0.13198036651611328,9.711929396820068
248844715204292,-0.004012851044535637,-0.0027297399938106537,0.0006165218073874712,0.02124853973388672,0.15337854385375976,9.685892453765868
248844725176292,-0.003088467987254262,-0.0024370586033910513,0.0009137305896729231,0.028880057525634766,0.13407529296874998,9.68559317855835
248844735148292,-0.0010210559703409672,-0.003920173272490501,0.0007273092633113265,0.037110125732421874,0.12868833923339842,9.685742816162108
248844745120292,-0.0014788532862439752,-0.0017979000695049763,0.0022415826097130775,0.03516483688354492,0.1301847152709961,9.694870709991454
248844755093292,-0.002947852946817875,-0.0017723336350172758,0.0012610068079084158,0.0326209976196289,0.1406593475341797,9.68499462814331
248844765065292,-0.0025592977181077003,-0.0018937737913802266,0.00037710359902121127,0.04773439559936523,0.13976152191162108,9.703250415802001
248844775037292,-0.0022442457266151905,-0.003088467987254262,0.0022303974255919456,0.04773439559936523,0.14993687896728514,9.712976860046385
248844785009292,-0.0022413162514567375,-0.0017323862994089723,0.0003885551996063441,0.0330699104309082,0.13602058181762694,9.698910925292969
248844794981292,-0.0022535668686032295,-0.0016695356462150812,0.0008450209861621261,0.03591302490234375,0.13766659545898435,9.683198976898193
248844804954292,-0.003466636873781681,-0.0016772588714957237,0.0004625910660251975,0.02798223190307617,0.12000935821533203,9.681702600860595
248844814926292,-0.0015342470724135637,-0.0011704593198373914,0.0024618261959403753,0.020201076507568357,0.12913725204467771,9.690082306671142
248844824898292,-0.0018634138396009803,-0.002240517409518361,-1.3315805063029984e-06,0.01750759963989258,0.136619132232666,9.67841057357788
248844834870292,-0.0025033713318407536,-0.003638144349679351,-8.175904804375023e-05,0.023343466186523436,0.13572130661010742,9.688585930633545
248844844842292,-0.004114317707717419,-0.003087136195972562,0.0010042780777439475,0.04638765716552734,0.14245499877929688,9.689783031463623
248844854815292,-0.003612045431509614,-0.0038954056799411774,0.0014258564915508032,0.03591302490234375,0.13631985702514648,9.69187795791626
248844864787292,-0.002284193178638816,-0.0012101404136046767,0.001633316627703607,0.041000703430175776,0.15128361740112303,9.693673609161376
248844874759292,-0.0012444951571524143,-0.0028133634477853775,0.0022498385515064,0.0469862075805664,0.13138181610107422,9.708787007141114
248844884731292,-0.0015028218040242791,-0.0013901700731366873,-1.651159800530877e-05,0.04908113403320312,0.12479776153564452,9.686042091369629
248844894703292,-0.002326803747564554,-0.001990446588024497,0.0014444985426962376,0.03995324020385742,0.12599486236572266,9.698761287689209
248844904676292,-0.0022540995851159096,-0.0011339739430695772,0.0012040151050314307,0.029179332733154296,0.12674305038452147,9.7039986038208
248844914648292,-0.0024607607629150152,-0.0032772859558463097,0.00022929816623218358,0.03007715835571289,0.1301847152709961,9.696666361236572
248844924620292,-0.003750795964151621,-0.0031310785561800003,0.0003784351865760982,0.028730419921875,0.14559738845825196,9.70459715423584
248844934592292,-0.0032983249984681606,-0.001249821507371962,0.0013558153295889497,0.027832594299316404,0.14006079711914063,9.70414824142456
248844944564292,-0.0021433120127767324,-0.0015896408585831523,0.002115881536155939,0.03232172241210937,0.12958616485595703,9.69142904510498
248844954537292,-0.0013012205017730594,-0.0003432814555708319,0.0016378440195694566,0.025139117431640625,0.12943652725219726,9.702053314971923
248844964509292,-0.0005214469274505973,-0.000993891735561192,0.0009856359101831913,0.029179332733154296,0.12285247268676758,9.694571434783935
248844974481292,-0.002484729280695319,-0.0011659319279715419,0.0007422229973599315,0.03247136001586914,0.13542203140258788,9.692775783538817
248844984453292,-0.002061286708340049,-0.0012274509062990546,0.0007446198142133653,0.029478607940673827,0.11806406936645507,9.701903677368163
248844994425292,-0.0037348170299082994,-0.003185939509421587,0.0006641923682764173,0.029927520751953124,0.13602058181762694,9.703250415802001
248845004398292,-0.0035955337807536125,-0.001692705205641687,0.0013480921043083072,0.028431144714355466,0.13557166900634765,9.712976860046385
248845014370292,-0.0024825986474752426,-0.0009859022684395313,0.0018229337874799967,0.046238019561767575,0.12853870162963865,9.706093530273437
248845024342292,-0.0032828785479068756,-0.0020991035271435976,0.002544117858633399,0.032172084808349606,0.13302782974243163,9.688885205841064
248845034314292,-0.0015355786308646202,-0.0015456987312063575,0.0006807039608247578,0.04085106582641601,0.1274912384033203,9.70444751663208
248845044286292,-0.0017390442080795765,-0.0025574336759746075,-0.0007456850726157427,0.03486556167602539,0.136619132232666,9.687688105010986
248845054259292,-0.001675128354690969,-0.0021675468888133764,0.0003115898580290377,0.03142389678955078,0.1240495735168457,9.696067810821532
248845064231292,-0.003564374754205346,-0.0014176006661728024,0.0014415690675377846,0.033818098449707026,0.13287819213867186,9.687688105010986
248845074203292,-0.0034413367975503206,-0.0034551850985735655,0.0006993460701778531,0.038756139373779294,0.12779051361083985,9.693972884368895
248845084175292,-0.004018443636596203,-0.00290444353595376,0.001163002452813089,0.023942016601562498,0.1318307289123535,9.699060562896728
248845094147292,-0.003935352899134159,-0.003832288784906268,0.00041758365114219487,0.020949264526367185,0.1370680450439453,9.710433020782471
248845104120292,-0.002987001556903124,-0.0021840583067387342,-0.0011472897604107857,0.017357962036132813,0.1370680450439453,9.69083049468994
248845114092292,-0.0035475967451930046,-0.0015600797487422824,0.0011970909545198083,0.037708676147460936,0.1406593475341797,9.688885205841064
248845124064292,-0.0018666095566004515,-0.001606418751180172,0.0005568669876083732,0.032172084808349606,0.14200608596801756,9.675567459106444
248845134036292,-0.000648479734081775,-0.0018258632626384497,0.0008929579053074121,0.04444236831665039,0.13108254089355467,9.694272159576416
248845144009292,-0.003913781605660915,-0.0013262542197480798,0.002582467393949628,0.028131869506835935,0.12345102310180664,9.679906949615479
248845153981292,-0.00199364242143929,-0.000755805114749819,0.00013555490295402706,0.03172317199707031,0.13302782974243163,9.701604402160644
248845163953292,-0.002150502521544695,-0.0018258632626384497,0.00048602689639665186,0.023792378997802732,0.13287819213867186,9.703250415802001
248845173925292,-0.0008173241512849927,-0.002335592173039913,0.0006567355012521148,0.02558803024291992,0.131531453704834,9.708787007141114
248845183897292,-0.0002948119363281876,-0.0017206683987751603,0.000532365869730711,0.04249707946777344,0.14679448928833008,9.701155489349365
248845193870292,-0.0037033918779343367,-0.003192064817994833,0.0009470200748182833,0.0383072265625,0.13257891693115234,9.703100778198241
248845203842292,-0.0023987090680748224,-0.0015089471125975251,0.0009105347562581301,0.03501519927978516,0.12419921112060546,9.692027595520019
248845213814292,-0.002112685702741146,-0.0023853934835642576,0.001118527608923614,0.03486556167602539,0.1249473991394043,9.701305126953125
248845223786292,-0.0018045579781755805,-0.0010985539993271232,0.0011318434262648225,0.0383072265625,0.1336263801574707,9.683797527313232
248845233758292,-0.0022503710351884365,-0.002217081608250737,0.0007962851668708026,0.04474164352416992,0.13766659545898435,9.696666361236572
248845243731292,-0.0029292108956724405,-0.0012743226252496243,0.0011981561547145247,0.04115034103393554,0.13557166900634765,9.705345342254638
248845253703292,-0.0008833705214783549,-0.002089249901473522,0.0006167881074361503,0.03621230010986328,0.14080898513793944,9.708188456726074
248845263675292,-0.0021899172570556402,-0.002031725598499179,0.0003502056933939457,0.03845686416625976,0.13257891693115234,9.695768535614013
248845273647292,-0.0030218889005482197,-0.00098190747667104,0.0011763182701542974,0.04085106582641601,0.1409586227416992,9.685443540954589
248845283619292,-0.0030128341168165207,-0.0023329290561378,0.0015126754296943545,0.04085106582641601,0.13811550827026367,9.699509475708007
248845293592292,-0.003228283952921629,-0.0022799321450293064,0.002912166528403759,0.029179332733154296,0.12419921112060546,9.680056587219237
248845303564292,-0.002877545543015003,-0.0021459751296788454,-0.00011717908637365326,0.022296002960205077,0.13213000411987305,9.694421797180174
248845313536292,-0.0030309436842799187,-0.0030274814926087856,0.0007222492713481188,0.03561374969482422,0.13916297149658202,9.699958388519287
248845323508292,-0.0021310613956302404,-0.002404301892966032,-0.0009169263648800552,0.021398177337646485,0.1388636962890625,9.699808750915526
248845333480292,-0.0035606464371085167,-0.004032824654132128,0.0006562029011547565,0.015113397979736327,0.12599486236572266,9.695020347595214
248845343453292,-0.0016391756944358349,-0.0009534116834402084,0.0016141419764608145,0.02528875503540039,0.12943652725219726,9.698761287689209
248845353425292,-0.0018322548130527139,-0.0026525084394961596,-0.000702009245287627,0.03172317199707031,0.1361702194213867,9.696815998840332
248845363397292,-0.002912166528403759,-0.0011984225129708648,0.0014966964954510331,0.03591302490234375,0.13437456817626953,9.692775783538817
248845373369292,-0.002382730133831501,-0.0010852381819859147,0.0006596649764105678,0.04159925384521484,0.1240495735168457,9.70369932861328
248845383341292,-0.0035063179675489664,-0.0028850024100393057,0.001437041675671935,0.037409400939941405,0.1427542739868164,9.693523971557617
248845393314292,-0.0032927324064075947,-0.002561161993071437,0.002115348819643259,0.03516483688354492,0.1406593475341797,9.699210200500488
248845403286292,-0.003995540551841259,-0.0027294738683849573,0.0004953479510731995,0.048183308410644526,0.1388636962890625,9.69846201248169
248845413258292,-0.0022093583829700947,-0.0024314660113304853,0.0015611450653523207,0.03681085052490234,0.13213000411987305,9.699509475708007
248845423230292,-0.00330231967382133,-0.002252501668408513,0.002195776207372546,0.033219548034667964,0.1331774673461914,9.683198976898193
248845433203292,-0.0018096179701387882,-0.0010602044640108943,0.001377653214149177,0.029628245544433593,0.131531453704834,9.682151513671874
248845443175292,-0.002159024588763714,-0.0013989584986120462,0.0006093312404118478,0.026785131072998045,0.13587094421386717,9.689034843444823
248845453147292,-0.002570749493315816,-0.0014852449530735612,0.0010452907299622893,0.04219780426025391,0.12644377517700195,9.683049339294433
248845463119292,-0.0035814191214740276,-0.00018242653459310532,0.00021544973424170166,0.04339490509033203,0.1409586227416992,9.692177233123779
248845473091292,-0.002909503411501646,-0.00261868629604578,0.0009808422764763236,0.029628245544433593,0.13168109130859373,9.709086282348633
248845483064292,-0.002299905987456441,-0.002633866388350725,-0.0008511462947353721,0.037110125732421874,0.1327285545349121,9.701454764556884
248845493036292,-0.0030093719251453876,-0.002304699504747987,0.0011094729416072369,0.03860650177001953,0.14320318679809568,9.69142904510498
248845503008292,-0.002317216480150819,-0.000898550555575639,0.0022572954185307026,0.03561374969482422,0.14185644836425781,9.702202952575684
248845512980292,-0.0017361147329211235,-0.0026056368369609118,0.0006940197781659663,0.03621230010986328,0.12808978881835936,9.687987380218505
248845522952292,-0.0030570426024496555,-0.001856489572674036,0.0013219931861385703,0.042646717071533204,0.12808978881835936,9.673771807861328
248845532925292,-0.003031476167961955,-0.0011140003334730864,0.0006157228490337729,0.04548983154296875,0.13093290328979493,9.682899701690673
248845542897292,-0.003357979701831937,-0.0009504822082817554,0.0014346449170261621,0.03172317199707031,0.13856442108154296,9.689633393859863
248845552869292,-0.0016655409708619118,-0.002767290687188506,0.0014671353856101632,0.032920272827148434,0.13482348098754882,9.696367086029053
248845562841292,-0.0028035095892846584,-0.002153165638446808,0.002784601179882884,0.03067570877075195,0.1261444999694824,9.687089554595946
248845572813292,-0.00355904852040112,-0.0014618091518059373,0.0016892430139705539,0.013168109130859374,0.14544775085449219,9.685892453765868
248845582786292,-0.0033955303952097893,-0.001041295938193798,7.80306218075566e-05,0.038756139373779294,0.13946224670410157,9.700856214141846
248845592758292,-0.00199310970492661,-0.0014120079576969147,0.000586161739192903,0.04444236831665039,0.13946224670410157,9.690082306671142
248845602730292,-0.0019558256026357412,-0.003565173828974366,0.0020154803059995174,0.03531447448730469,0.13557166900634765,9.692775783538817
248845612702625,-0.003180346917361021,-0.002832005498930812,0.0016471651615574956,0.03531447448730469,0.13542203140258788,9.696217448425292
248845622675625,-0.002528138691559434,-0.001654622028581798,0.0018916432745754719,0.04279635467529297,0.12629413757324218,9.690980132293701
248845632647625,-0.0018122810870409012,-0.001306014135479927,0.0014008227735757828,0.033219548034667964,0.12135609664916991,9.695768535614013
248845642619625,-0.0038333539851009846,-0.0027087011840194464,0.002266349969431758,0.03396773605346679,0.13422493057250975,9.682600426483154
248845652591625,-0.0029880667570978403,-0.001398159540258348,0.0017800568602979183,0.03426701126098632,0.14649521408081054,9.690531219482422
248845662563625,-0.0021518340799957514,-0.0015723302494734526,0.001419198582880199,0.04129997863769531,0.1452981132507324,9.698761287689209
248845672536625,-0.0019803266040980816,-0.0018469021888449788,0.0019494339358061552,0.03920505218505859,0.131531453704834,9.69846201248169
248845682508625,-0.0025811356026679277,-0.0021675468888133764,0.00020106865849811584,0.03037643356323242,0.12958616485595703,9.688286655426024
248845692480625,-0.0027779433876276016,-0.0006980145117267966,0.0010673949727788568,0.029179332733154296,0.13063362808227538,9.703250415802001
248845702452625,-0.0021052288357168436,-0.0020184097811579704,0.0012945625931024551,0.0383072265625,0.12913725204467771,9.71073229598999
248845712424625,-0.0014223942998796701,-0.000672181835398078,0.0005286374944262207,0.032172084808349606,0.1331774673461914,9.686939916992188
248845722397625,-0.0018008295446634293,-0.001458080718293786,0.0006234460161067545,0.03531447448730469,0.14634557647705076,9.702951140594482
248845732369625,-0.001326786819845438,-0.0025361282750964165,0.0013134710025042295,0.03965396499633789,0.1249473991394043,9.709834470367431
248845742341625,-0.0017337178578600287,-0.0014327806420624256,0.00022450447431765497,0.042646717071533204,0.13437456817626953,9.695319622802733
248845752313625,-0.0035446672700345516,-0.003064499469473958,0.0007360977469943464,0.031872809600830075,0.1197100830078125,9.696067810821532
248845762285625,-0.00202293717302382,-0.0028810077346861362,5.5660068028373644e-05,0.029628245544433593,0.13557166900634765,9.709385557556152
248845772258625,-0.0014002900570631027,-0.0016943031223490834,0.0007408913807012141,0.026186580657958983,0.13572130661010742,9.695169985198975
248845782230625,-0.003369963960722089,-0.0016937704058364034,0.0013257216196507215,0.039055414581298825,0.13467384338378904,9.695469260406494
248845792202625,0.0001054611784638837,-0.002010952914133668,0.0014809839194640517,0.02902969512939453,0.13198036651611328,9.695319622802733
248845802174625,-0.0016998957144096494,-0.0023092268966138363,0.00018029600323643535,0.03890577697753906,0.12165537185668944,9.69157868270874
248845812147625,-0.0029830066487193108,-0.0007408913807012141,-0.0002407497668173164,0.03561374969482422,0.13392565536499024,9.694272159576416
248845822119625,-0.0022498385515064,-0.001671666163019836,0.0007845672662369907,0.03980360260009765,0.13437456817626953,9.69741454925537
248845832091625,-0.004040281753987074,-0.002779274946078658,0.00027803401462733746,0.04159925384521484,0.12629413757324218,9.700556938934326
248845842063625,-0.0019864519126713276,-0.004509796854108572,0.0005398227367550135,0.041748891448974604,0.1388636962890625,9.712677584838866
248845852035625,-0.0033566481433808804,-0.0044261738657951355,0.0025984463281929493,0.04534019393920898,0.13078326568603516,9.71686743774414
248845862008625,-0.0023875238839536905,-0.0032775523141026497,0.0004934837343171239,0.02454056701660156,0.12674305038452147,9.702801502990722
248845871980625,-0.00242107966914773,-0.0030072415247559547,0.0005645901546813548,0.016460136413574217,0.14036007232666015,9.69696563644409
248845881952625,-0.0016130766598507762,-0.00166607357095927,0.001002413802780211,0.010324994659423827,0.14933832855224607,9.698611650085448
248845891924625,-0.002254898427054286,-0.0015052186790853739,0.0014705975772812963,0.021996727752685546,0.1331774673461914,9.690980132293701
248845901896625,-0.0020005665719509125,-0.0021646174136549234,0.0018383801216259599,0.04414309310913086,0.12150573425292968,9.69068085708618
248845911869625,-0.003591272747144103,-0.0008756473544053733,0.0005113269435241818,0.045938744354248044,0.13781623306274413,9.672574707031249
248845921841625,-0.0004146541759837419,-0.0007789746159687638,-3.888214996550232e-05,0.04833294601440429,0.13287819213867186,9.696067810821532
248845931813625,-0.0025571673177182674,-0.002721750643104315,0.0024804682470858097,0.03815758895874023,0.1396118843078613,9.696815998840332
248845941785625,-0.002567020943388343,-0.001977929612621665,0.003013632958754897,0.041748891448974604,0.13213000411987305,9.70504606704712
248845951757625,-0.0014021543320268393,-0.0028535770252346992,0.001585912425071001,0.03800795135498047,0.1288379768371582,9.711031571197509
248845961730625,-0.001746234716847539,-0.0018554243724793196,0.0005052016349509358,0.03426701126098632,0.13213000411987305,9.694122521972655
248845971702625,-0.0031726236920803785,-0.0004665858286898583,0.0006524744676426053,0.03815758895874023,0.136619132232666,9.694421797180174
248845981674625,-0.0028610338922590017,-0.0018154769204556942,0.0009009473724290729,0.03501519927978516,0.1349731185913086,9.694571434783935
248845991646625,-0.0004468784318305552,-0.0007028082036413252,0.0017116136150434613,0.03591302490234375,0.12434884872436523,9.683647889709473
248846001619625,-0.002528405049815774,-0.002835467690601945,0.0010197244118899107,0.032172084808349606,0.12734160079956053,9.69187795791626
248846011591625,-0.0012327772565186024,-0.002144377212971449,0.00025220136740244925,0.01780687484741211,0.1253963119506836,9.707140993499756
248846021563625,-0.002097771968692541,-0.002263953210785985,0.001955559244379401,0.03441664886474609,0.1361702194213867,9.695618898010252
248846031535625,-0.0029286781791597605,-0.003061303636059165,0.0002383529208600521,0.0469862075805664,0.13542203140258788,9.692177233123779
248846041507625,-0.0017965685110539198,-0.003918575122952461,-0.0004005394293926656,0.05491700057983398,0.14110826034545898,9.709535195159912
248846051480625,-0.003463707398623228,-0.0030429279431700706,0.001127582392655313,0.02977788314819336,0.13811550827026367,9.69801309967041
248846061452625,-0.001615473534911871,-0.004309260752052069,0.0018911106744781137,0.030526071166992186,0.13093290328979493,9.674968908691406
248846071424625,-0.0051622712053358555,-0.0024109596852213144,-0.00016298545233439654,0.035464112091064454,0.1375169578552246,9.69142904510498
248846081396625,-0.0024559672456234694,-0.0013560815714299679,0.0014647386269643903,0.04504091873168945,0.1304839904785156,9.708188456726074
248846091368625,-0.003325755475088954,-0.0012926984345540404,0.0010985539993271232,0.030974983978271482,0.13557166900634765,9.706692080688477
248846101341625,-0.003543602069839835,-0.0006111954571679235,0.0025624935515224934,0.03441664886474609,0.1484405029296875,9.712228672027587
248846111313625,-0.003743072971701622,-0.003896737238392234,0.0014207963831722736,0.012120645904541014,0.13377601776123046,9.693972884368895
248846121285625,0.00016724651504773647,-0.0027318706270307302,0.0009472863748669624,0.03067570877075195,0.13587094421386717,9.69786346206665
248846131257625,-0.0023225427139550447,-0.001752360025420785,0.00020932445477228612,0.0383072265625,0.13392565536499024,9.693823246765136
248846141230625,-0.0011030812747776508,-0.002444781828671694,0.001330249011516571,0.03531447448730469,0.13287819213867186,9.70414824142456
248846151202625,-0.0023257385473698378,-0.0016042882343754172,0.0007856325246393681,0.026036943054199218,0.12524667434692383,9.69187795791626
248846161174625,-0.002540655666962266,-0.002469016704708338,0.0011478224769234657,0.03591302490234375,0.13811550827026367,9.69696563644409
248846171146625,-0.002157160546630621,-0.0018290589796379209,0.0001246359315700829,0.03336918563842773,0.13467384338378904,9.725247143554688
248846181118625,-0.0006125270738266408,-0.0017153420485556126,0.0003880225704051554,0.032172084808349606,0.1384147834777832,9.700257663726806
248846191091625,-0.0018751317402347922,-0.0019022959750145674,0.0010871023405343294,0.039055414581298825,0.1274912384033203,9.687388829803465
248846201063625,1.8642127770363004e-06,-0.0004117247008252889,0.0006343649583868682,0.037110125732421874,0.136619132232666,9.700257663726806
248846211035625,-0.002329467097297311,-0.0010186590952798724,0.002273540711030364,0.030825346374511717,0.13871405868530273,9.714473236083984
248846221007625,-0.003091397462412715,-0.0009587379754520953,0.0023696806747466326,0.04534019393920898,0.12389993591308593,9.695469260406494
248846230980625,-0.003343332326039672,-0.002251968951895833,0.001315335277467966,0.03441664886474609,0.1414075355529785,9.688585930633545
248846240952625,-0.001978995045647025,-0.002510561840608716,0.002229065867140889,0.04189852905273437,0.13063362808227538,9.69741454925537
248846250924625,-0.0017994979862123728,-0.003659449517726898,0.000494016392622143,0.031573534393310544,0.1427542739868164,9.70459715423584
248846260896625,-0.0025595640763640404,-0.002689526416361332,0.0008721852791495621,0.01780687484741211,0.13242927932739257,9.695618898010252
248846270868625,-0.002922286745160818,-0.0031790153589099646,0.0001816275907913223,0.025737667846679687,0.12569558715820311,9.708038819122313
248846280841625,-0.0027241474017500877,-0.0024738102219998837,0.001344363670796156,0.029478607940673827,0.1258452247619629,9.701604402160644
248846290813625,-0.0035177695099264383,-0.0007637945818714797,0.0011281149927526712,0.026036943054199218,0.14036007232666015,9.683198976898193
248846300785625,-0.0033212280832231045,-0.0029025792609900236,-0.0011046791914850473,0.034715924072265626,0.13437456817626953,9.681702600860595
248846310757625,-0.003085005795583129,-0.0029324067290872335,0.0021054951939731836,0.04713584518432617,0.12180500946044921,9.696815998840332
248846320729625,-0.003133208956569433,-0.001978995045647025,0.001719603082165122,0.033818098449707026,0.1292868896484375,9.711929396820068
248846330702625,-0.0019140138756483793,-0.0018751317402347922,0.0012892362428829074,0.033219548034667964,0.1301847152709961,9.693523971557617
248846340674625,-0.0029057750944048166,-0.0008173241512849927,0.00020506340661086142,0.030526071166992186,0.13721768264770506,9.702053314971923
248846350646625,-0.0027454528026282787,-0.0029111013282090425,0.0015012238873168826,0.025139117431640625,0.13646949462890623,9.708637369537353
248846360618625,-0.00256435782648623,-0.003707120195031166,0.001891909632831812,0.03366846084594726,0.1288379768371582,9.694571434783935
248846370591625,-0.0009350358741357923,-0.0016042882343754172,-0.0003201119543518871,0.04713584518432617,0.12120645904541015,9.673173257446289
248846380563625,-0.0008607336785644293,-0.0020940436515957117,0.0011387676931917667,0.04189852905273437,0.13003507766723632,9.690531219482422
248846390535625,-0.0026053704787045717,-0.002347310073673725,0.0005584649043157697,0.03232172241210937,0.131531453704834,9.707889181518555
248846400507625,-0.00180855265352875,-0.0013845774810761213,0.002280997345224023,0.03441664886474609,0.13482348098754882,9.697264911651612
248846410479625,-0.0033862092532217503,-0.0013494236627593637,0.000559530162718147,0.03815758895874023,0.1370680450439453,9.698910925292969
248846420452625,-0.0014895059866830707,-0.0035454663448035717,0.0007600661483593285,0.04414309310913086,0.131531453704834,9.69831237487793
248846430424625,-0.003623763332143426,-0.0033425334841012955,0.001318264752626419,0.03142389678955078,0.14320318679809568,9.700856214141846
248846440396625,-0.0030152308754622936,-0.0014682007022202015,0.00021944446780253202,0.037110125732421874,0.13168109130859373,9.699359838104247
248846450368625,-0.0020072245970368385,5.00674286740832e-05,0.002767290687188506,0.03501519927978516,0.1388636962890625,9.699958388519287
248846460340625,-0.003355849301442504,-0.0026935210917145014,0.0008450209861621261,0.03815758895874023,0.13826514587402344,9.699359838104247
248846470313625,-0.002615224104374647,-0.003141731023788452,0.0009451558580622077,0.03950432739257812,0.12734160079956053,9.68529390335083
248846480285625,-0.0013528858544304967,-0.0032589102629572153,0.0016929714474827051,0.03531447448730469,0.1423053611755371,9.695768535614013
248846490257625,-0.0017116136150434613,-0.0017148094484582543,0.0006325007416307926,0.03366846084594726,0.14125789794921875,9.680505500030517
248846500229625,-0.0031121699139475822,-0.0024029703345149755,-0.0003680488734971732,0.020051438903808592,0.11866261978149413,9.692626145935058
248846510202625,-0.002960369922220707,-0.002802178030833602,0.0009470200748182833,0.031872809600830075,0.1222539222717285,9.679607674407958
248846520174625,-0.002436526119709015,0.00010040117194876075,0.00013848437811248004,0.036062662506103516,0.13108254089355467,9.701604402160644
248846530146625,-0.0017329188995063305,-0.0015941682504490018,0.0016567525453865528,0.032920272827148434,0.12075754623413085,9.693823246765136
248846540118625,-0.004555603489279747,-0.00216488353908062,0.001246625673957169,0.02798223190307617,0.12135609664916991,9.695319622802733
248846550091625,-0.0006064017652533948,-0.0021755362395197153,0.0008641957538202405,0.03725976333618164,0.13946224670410157,9.701005851745604
248846560063625,-0.0049620019271969795,-0.005717540625482798,0.00034674355993047357,0.030825346374511717,0.1497872413635254,9.695319622802733
248846570035625,-0.0026490462478250265,-0.004388622939586639,0.0005382248782552779,0.03037643356323242,0.1131260284423828,9.696217448425292
248846580007625,-0.0027747475542128086,-0.0052472264505922794,1.1984225238848012e-05,0.0378583137512207,0.13063362808227538,9.707290631103515
248846589979625,-0.0023390543647110462,-0.00407410366460681,0.0005448827287182212,0.05491700057983398,0.15307926864624022,9.698761287689209
248846599952625,-0.002823749789968133,-0.0034147051628679037,0.0020471718162298203,0.027682956695556638,0.15382745666503905,9.70354969100952
248846609924417,-0.0025398568250238895,-0.0029883331153541803,0.00017949705943465233,0.012719196319580078,0.10684124908447265,9.67856021118164
248846619896417,-0.0027750139124691486,-0.0013683321885764599,0.0011997540714219213,-0.01331774673461914,0.08334814529418945,9.677363110351562
248846629868417,-0.0031302794814109802,-0.0002820287481881678,0.0007337008719332516,0.03561374969482422,0.12330138549804687,9.693972884368895
248846639840417,-0.0017036241479218006,-0.00031798143754713237,0.001201618229970336,0.06494272003173827,0.15981296081542967,9.69801309967041
248846649813417,-0.0017869811272248626,0.0013201289111748338,0.0009837717516347766,0.05910685348510742,0.16445172653198242,9.69801309967041
