timestamp_ns,wx,wy,wz,ax,ay,az
249533223959042,-0.0005797701887786388,-0.002496979897841811,0.002636263146996498,0.03965396499633789,0.14185644836425781,9.717765263366699
249533233930042,-0.004059989005327225,-0.0022423816844820976,0.0017675400013104081,0.04055179061889648,0.13721768264770506,9.713725048065186
249533243901042,-0.0028594359755516052,-0.0014540859265252948,0.0013190637109801173,0.03456628646850586,0.1322796417236328,9.701903677368163
249533253871042,-0.0036218990571796894,-0.0023118900135159492,0.0006506102508865297,0.04234744186401367,0.14080898513793944,9.715670336914062
249533263842500,-0.002695385366678238,-0.0019598202779889107,-0.0002860235108528286,0.05132569808959961,0.1327285545349121,9.69846201248169
249533273813500,-0.003525758860632777,-0.0012293151812627912,0.0013486248208209872,0.040102877807617184,0.1393126091003418,9.708338094329834
249533283784500,-0.003879959462210536,-0.0026852653827518225,0.0017012272728607059,0.050128597259521485,0.1327285545349121,9.72913772125244
249533293755500,-0.0033310819417238235,-0.002380333375185728,0.001139300293289125,0.04519055633544922,0.13811550827026367,9.720159465026855
249533303725500,-0.002841326640918851,-0.0005893575726076961,0.0012412993237376213,0.03486556167602539,0.13302782974243163,9.694421797180174
249533313696500,-0.003388339886441827,-0.00039068571641109884,0.0007882956997491419,0.04713584518432617,0.13467384338378904,9.701754039764404
249533323667500,-0.0033489251509308815,-0.0014769891276955605,0.0010894992155954242,0.02483984222412109,0.12554594955444334,9.709834470367431
249533333638500,-0.003742540255188942,-0.00180855265352875,0.0007105313707143068,0.04129997863769531,0.127042325592041,9.702202952575684
249533343609500,-0.0031462584156543016,-0.0026370619889348745,0.0016498282784596086,0.04249707946777344,0.12958616485595703,9.720159465026855
249533353579500,-0.0027329358272254467,-0.000815193576272577,0.002222141483798623,0.03890577697753906,0.13721768264770506,9.726743519592285
249533363550500,-0.001698830397799611,-0.0015611450653523207,0.0013528858544304967,0.03681085052490234,0.13198036651611328,9.71058265838623
249533373521500,-0.0027305390685796738,-0.002567020943388343,0.0019148128340020776,0.03516483688354492,0.1349731185913086,9.707739543914794
249533383492500,-0.003183809109032154,-0.0006183860241435468,0.0017393104499205947,0.03336918563842773,0.12913725204467771,9.706692080688477
249533393463500,-0.003162237349897623,-0.001187503570690751,-0.0002665824140422046,0.035763387298583985,0.13482348098754882,9.705943892669676
249533403434500,-0.0024168186355382204,-0.0021635519806295633,0.0011049455497413874,0.029179332733154296,0.13826514587402344,9.702951140594482
249533413404500,-0.0038599856197834015,-0.0014953649369999766,0.000958205375354737,0.03621230010986328,0.13242927932739257,9.708188456726074
249533423375500,-0.0022972426377236843,-0.001546763931401074,0.0027569043450057507,0.046238019561767575,0.13467384338378904,9.70354969100952
249533433346500,-0.0036133769899606705,-0.0023963123094290495,0.0008649947121739388,0.03920505218505859,0.12195464706420897,9.718513451385498
249533443317500,-0.0015686018159613013,-0.0015630092239007354,0.0023901870008558035,0.03142389678955078,0.12988544006347655,9.715221424102783
249533453288500,-0.002924949862062931,-0.000529702752828598,0.0030008498579263687,0.037708676147460936,0.13467384338378904,9.706243167877197
249533463258500,-0.0004596615908667445,-0.0021315941121429205,0.0004884237423539162,0.050427872467041016,0.13587094421386717,9.6917283203125
249533473229500,-0.0026080335956066847,-0.0024825986474752426,0.0009531453251838684,0.049829322052001954,0.13811550827026367,9.693673609161376
249533483200500,-0.0023273364640772343,-0.0020804614759981632,0.0007281082216650248,0.03860650177001953,0.13631985702514648,9.708487731933593
249533493171500,-0.0029800771735608578,-0.003622964257374406,0.0029409287963062525,0.04129997863769531,0.13721768264770506,9.702202952575684
249533503142500,-0.0015928366919979453,-0.002433063928037882,0.0005520732956938446,0.04519055633544922,0.14649521408081054,9.700556938934326
249533513112500,-0.0022021678742021322,-0.0011435613268986344,0.002016545506194234,0.04339490509033203,0.14829086532592772,9.706991355895996
249533523083500,-0.0014849785948172212,-0.0002687129599507898,0.0005608617211692035,0.03411737365722656,0.1331774673461914,9.707889181518555
249533533054500,-0.0021286646369844675,-0.0011885687708854675,0.001977929612621665,0.04369418029785156,0.13213000411987305,9.704746791839598
249533543025500,-0.0018727348651736975,-0.0028695559594780207,0.0002980077115353197,0.037110125732421874,0.13467384338378904,9.711480484008788
249533552996500,-0.003644003299996257,-0.003093527862802148,0.001996838254854083,0.03725976333618164,0.1423053611755371,9.713575410461425
249533562967500,-0.002154231071472168,-0.0015694007743149996,0.002897519152611494,0.053719899749755856,0.13467384338378904,9.715969612121581
249533572937500,-0.00236195744946599,-0.002079662401229143,0.001612277701497078,0.04129997863769531,0.13257891693115234,9.712677584838866
249533582908500,-0.00279046013019979,-0.002898051869124174,0.0021065603941679,0.03456628646850586,0.12599486236572266,9.712378309631347
249533592879500,-0.0027363980188965797,-0.003102582646533847,0.0021166803780943155,0.043245267486572266,0.13676876983642577,9.710881933593749
249533602850500,-0.0019315907265990973,-0.002767823403701186,0.002014415105804801,0.039354689788818356,0.14634557647705076,9.711480484008788
249533612821500,-0.0032056469935923815,-0.0027233485598117113,0.0027534421533346176,0.05132569808959961,0.1318307289123535,9.706991355895996
249533622791500,-0.0012231898726895452,-0.0006452839006669819,-0.0005249090609140694,0.03247136001586914,0.127042325592041,9.720758015441893
249533632762500,-0.00253399764187634,-0.0034013893455266953,0.0006186523241922259,0.03366846084594726,0.1427542739868164,9.718214176177979
249533642733500,-0.0035931370221078396,-0.0016929714474827051,0.0023395870812237263,0.03995324020385742,0.12823942642211913,9.712378309631347
249533652704500,-0.001288171042688191,-0.001073786523193121,0.0008516788948327303,0.030974983978271482,0.14350246200561523,9.711480484008788
249533662675500,-0.0023811322171241045,-0.0017124125733971596,0.0017981663113459945,0.04025251541137695,0.14499883804321287,9.712827222442627
249533672645500,-0.0015755260828882456,-0.002005093963816762,0.0013709953054785728,0.03621230010986328,0.13781623306274413,9.702202952575684
249533682616500,-0.0013899037148803473,-0.0029470541048794985,0.0006948187365196645,0.03800795135498047,0.13646949462890623,9.698761287689209
249533692587500,-0.0027174896094948053,-0.002388589084148407,0.001528920722194016,0.03277063522338867,0.1345242057800293,9.70414824142456
249533702558500,-0.0017835189355537295,-0.0029491845052689314,0.001184307737275958,0.04833294601440429,0.13108254089355467,9.712228672027587
249533712529500,-0.003925765864551067,-0.0028610338922590017,0.000964064325671643,0.04025251541137695,0.1396118843078613,9.704746791839598
249533722499500,-0.001859152689576149,-0.0014434333425015211,0.0013206616276875138,0.035464112091064454,0.13302782974243163,9.6917283203125
249533732470500,-0.0025126924738287926,-0.0005962817813269794,0.0007352987886406481,0.03995324020385742,0.14021043472290037,9.6917283203125
249533742441500,-0.002930542454123497,-0.0012631373247131705,0.0010064085945487022,0.043245267486572266,0.13676876983642577,9.704297879028319
249533752412500,-0.003400856629014015,-0.001160072977654636,0.0021140172611922026,0.034715924072265626,0.1406593475341797,9.708936644744872
249533762383500,-0.0028687571175396442,-0.001261273049749434,0.002511360915377736,0.03232172241210937,0.13168109130859373,9.694870709991454
249533772353500,-0.0030386666767299175,-0.0011787151452153921,0.0018604843644425273,0.032920272827148434,0.14335282440185546,9.700856214141846
249533782324500,-0.003569700988009572,-0.002907373011112213,0.002365952357649803,0.046537294769287106,0.136619132232666,9.715071786499022
249533792295500,-0.001936917076818645,-0.0027856663800776005,0.0009680590592324734,0.042048166656494135,0.12823942642211913,9.711630121612549
249533802266500,-0.0023310647811740637,-0.0009675264009274542,0.0014751249691471457,0.03411737365722656,0.13108254089355467,9.71671780014038
249533812237500,-0.002097771968692541,-0.0024442493449896574,0.0021550299134105444,0.040402153015136714,0.1388636962890625,9.695169985198975
249533822208500,-0.0022149509750306606,-0.001067927572876215,0.0013584784464910626,0.03965396499633789,0.13422493057250975,9.70444751663208
249533832178500,-0.0012564794160425663,-0.0018287927377969027,1.3848437447450124e-05,0.047584757995605464,0.14215572357177733,9.696815998840332
249533842149500,-0.0022482406347990036,-0.0020474381744861603,0.0017305220244452357,0.040701428222656245,0.13437456817626953,9.707739543914794
249533852120500,-0.0021816615480929613,-0.0030929953791201115,0.001555818715132773,0.03621230010986328,0.14350246200561523,9.716119249725342
249533862091500,-0.0031443943735212088,-0.0024370586033910513,0.0015417039394378662,0.036062662506103516,0.13123217849731444,9.713425772857665
249533872062500,-0.002926813904196024,-0.0012695288751274347,0.0012889700010418892,0.03890577697753906,0.14080898513793944,9.714622873687743
249533882032500,-0.003066896228119731,-0.00250470289029181,0.0018077536951750517,0.03815758895874023,0.14395137481689452,9.702502227783203
249533892003500,-0.0019225359428673983,0.00019707392493728548,0.001540638622827828,0.03890577697753906,0.1304839904785156,9.701903677368163
249533901974500,-0.002508697798475623,-0.0007329019135795534,-0.00037763622822239995,0.03561374969482422,0.14036007232666015,9.706841718292235
249533911945500,-0.003242132253944874,-0.00250470289029181,0.0011731224367395043,0.040102877807617184,0.1258452247619629,9.706542443084716
249533921916500,-0.004356665071099997,-0.002061819192022085,-0.000147272803587839,0.035763387298583985,0.127042325592041,9.711480484008788
249533931886500,-0.002864762442186475,-0.0006239786162041128,0.002281530061736703,0.043245267486572266,0.13976152191162108,9.7162688873291
249533941857500,-0.002460494404658675,-0.002064748667180538,0.0014623417519032955,0.031872809600830075,0.14021043472290037,9.715520699310302
249533951828500,-0.002377670258283615,-0.0012426309986039996,0.0005483448621816933,0.03591302490234375,0.14380173721313474,9.704896429443359
249533961799500,-0.003658917034044862,-0.0020098877139389515,0.00012064119800925255,0.051774610900878905,0.13736732025146484,9.702801502990722
249533971770500,-0.0022650184109807014,-0.0015073491958901286,0.0007337008719332516,0.05057751007080078,0.13138181610107422,9.696217448425292
249533981741500,-0.00367116741836071,-0.00042211104300804436,0.0012010856298729777,0.0430956298828125,0.13676876983642577,9.717615625762939
249533991711500,-0.002590989461168647,-0.0019528960110619664,0.0008468852029182017,0.041000703430175776,0.1304839904785156,9.709535195159912
249534001682500,-0.002892459277063608,-0.0027542412281036377,0.001633316627703607,0.033518823242187495,0.1345242057800293,9.709235919952391
249534011653500,-0.0027832696214318275,-0.0015627428656443954,0.0013941648649051785,0.041748891448974604,0.12719196319580078,9.702352590179443
249534021624500,-0.002638926263898611,-0.0029001825023442507,0.0019371833186596632,0.04159925384521484,0.12988544006347655,9.695020347595214
249534031595500,-0.0019286612514406443,-0.0025686188600957394,0.0010998855577781796,0.04608838195800781,0.12973580245971678,9.711480484008788
249534041565500,-0.0011864382540807128,-0.0022394522093236446,0.0019435749854892492,0.03755903854370117,0.1349731185913086,9.708188456726074
249534051536500,-0.002709766384214163,-0.0024285365361720324,0.0003587277897167951,0.029628245544433593,0.13168109130859373,9.701005851745604
249534061507500,-0.0019837887957692146,-0.00264798104763031,0.00033928672201000154,0.032172084808349606,0.13213000411987305,9.704746791839598
249534071478500,-0.002237055217847228,-0.0024892566725611687,0.000952080066781491,0.04025251541137695,0.13377601776123046,9.709535195159912
249534081449500,-0.0019920445047318935,-0.0006202502408996224,0.0016128103015944362,0.048183308410644526,0.1288379768371582,9.708487731933593
249534091419500,-0.0029675604309886694,-0.0021116205025464296,0.0022245384752750397,0.03531447448730469,0.13587094421386717,9.69831237487793
249534101390500,-0.0024431839119642973,-0.0030775489285588264,0.001680454588495195,0.0330699104309082,0.1406593475341797,9.703400053405762
249534111361500,-0.0026879284996539354,-0.0017710020765662193,0.0007994809420779347,0.03696048812866211,0.14499883804321287,9.726593881988524
249534121332500,-0.004150802735239267,-0.002085521351546049,0.0016924388473853469,0.03965396499633789,0.12988544006347655,9.715670336914062
249534131303500,-0.003266899613663554,-0.00126766471657902,0.0010953581659123302,0.04608838195800781,0.12345102310180664,9.705195704650878
249534141273500,-0.0026847326662391424,-0.0018303906545042992,0.0009499495499767363,0.047285482788085934,0.13901333389282225,9.70414824142456
249534151244500,-0.003920705523341894,-0.0010692591313272715,0.00031851406674832106,0.03531447448730469,0.14155717315673827,9.7162688873291
249534161215500,-0.003912183456122875,-0.0020820593927055597,0.0015536881983280182,0.03366846084594726,0.12659341278076172,9.709385557556152
249534171186500,-0.0028610338922590017,-0.00224903947673738,0.001448759576305747,0.0526724365234375,0.13631985702514648,9.709834470367431
249534181157500,-0.005034439731389284,-0.0021494373213499784,0.0016445019282400608,0.04504091873168945,0.13602058181762694,9.706243167877197
249534191128500,-0.0015747271245345473,-0.002492984989657998,0.0006729807937517762,0.047285482788085934,0.13407529296874998,9.699509475708007
249534201098500,-0.004054929129779339,-0.0022125542163848877,0.0009201221400871873,0.05132569808959961,0.12943652725219726,9.698761287689209
249534211069500,-0.0026929883752018213,-0.0017425062833353877,0.0019979034550487995,0.040402153015136714,0.13257891693115234,9.710881933593749
249534221040500,-0.0012026835465803742,-0.0017369136912748218,0.0011646003695204854,0.041000703430175776,0.12509703674316405,9.725097505950927
249534231011500,-0.0025182850658893585,-0.002326004905626178,0.0011984225129708648,0.052073886108398436,0.13781623306274413,9.712079034423828
249534240982500,-0.0012234562309458852,-0.003897536313161254,0.0007550061563961208,0.045938744354248044,0.14006079711914063,9.706542443084716
249534250952500,-0.002615224104374647,-0.0027276095934212208,0.0016407734947279096,0.02798223190307617,0.13003507766723632,9.701005851745604
249534260922625,-0.0035454663448035717,-0.0017843178939074278,0.0026844663079828024,0.044592005920410155,0.14649521408081054,9.711929396820068
249534270893625,-0.002941993996500969,-0.000945954816415906,0.002802977105602622,0.04144961624145507,0.1384147834777832,9.705195704650878
249534280864625,-0.0029939257074147463,-0.001261273049749434,-0.0002697782183531672,0.04414309310913086,0.13646949462890623,9.712079034423828
249534290835625,-0.0015417039394378662,-0.0003534014686010778,0.0017872473690658808,0.04129997863769531,0.13916297149658202,9.70414824142456
249534300805625,-0.004025634378194809,-0.0023667511995881796,0.0012191950809210539,0.03800795135498047,0.13093290328979493,9.699958388519287
249534310776625,-0.002590989461168647,-0.0011704593198373914,0.002552373567596078,0.04399345550537109,0.12554594955444334,9.707889181518555
249534320747625,-0.0027742148377001286,-0.0019302591681480408,0.0005613943794742227,0.043544542694091797,0.1393126091003418,9.711480484008788
249534330718625,-0.0040943436324596405,-0.0029798108153045177,0.0007158577209338546,0.03995324020385742,0.13422493057250975,9.708637369537353
249534340689625,-0.0023345269728451967,-0.002773415995761752,0.0011757856700569391,0.04369418029785156,0.13347674255371092,9.707140993499756
249534350660625,-0.002275937469676137,-0.001389104756526649,0.0019558256026357412,0.04878185882568359,0.13946224670410157,9.707589906311034
249534360630625,-0.00253479671664536,-0.003055178327485919,0.0007901599165052176,0.0378583137512207,0.13242927932739257,9.699958388519287
249534370601625,-0.002404301892966032,-0.0020160130225121975,-0.0006444850005209446,0.035464112091064454,0.1283890640258789,9.708637369537353
249534380572625,-0.0016080166678875685,-0.002784334821626544,0.00016058860637713224,0.03725976333618164,0.13093290328979493,9.706542443084716
249534390543625,-0.0031140341889113188,-0.001073786523193121,0.0020122844725847244,0.036062662506103516,0.12569558715820311,9.709385557556152
249534400514625,-0.002426672261208296,-0.0018788601737469435,0.0003022687742486596,0.03980360260009765,0.1292868896484375,9.706841718292235
249534410484625,-0.0041702440939843655,-0.0025446503423154354,0.0011861718958243728,0.025887305450439452,0.1361702194213867,9.692027595520019
249534420455625,-0.003632285399362445,-0.0021728731226176023,0.0005936186062172055,0.037409400939941405,0.13422493057250975,9.700257663726806
249534430426625,-0.00276063266210258,-0.0011728560784831643,0.0011065434664487839,0.03725976333618164,0.1301847152709961,9.714622873687743
249534440397625,-0.002172074280679226,-0.0019912454299628735,0.001826395862735808,0.03860650177001953,0.1304839904785156,9.700556938934326
249534450368625,-0.0023366576060652733,-0.001961684552952647,0.0023305322974920273,0.03950432739257812,0.12599486236572266,9.712677584838866
249534460338625,-0.002499909373000264,-0.002570483135059476,0.002430134452879429,0.03516483688354492,0.127042325592041,9.702651865386962
249534470309625,-0.0032471923623234034,-0.0013177321525290608,0.0012639362830668688,0.036062662506103516,0.13781623306274413,9.705195704650878
249534480280625,-0.004699414130300283,-0.000874582096002996,0.0018679412314668298,0.033219548034667964,0.13856442108154296,9.705943892669676
249534490251625,-0.002972087822854519,-0.0028692898340523243,0.0027233485598117113,0.04414309310913086,0.13138181610107422,9.704297879028319
249534500222625,-0.0022658174857497215,-0.0018487664638087153,0.0026162895374000072,0.03336918563842773,0.14185644836425781,9.692027595520019
249534510193625,-0.0024144218768924475,-0.0024586303625255823,6.657902849838138e-05,0.03441664886474609,0.1444002876281738,9.710433020782471
249534520163625,-0.002787264296784997,-0.0024165522772818804,0.0012828446924686432,0.03396773605346679,0.12913725204467771,9.71716671295166
249534530134625,-0.002258893335238099,-0.0006103964988142252,0.0017393104499205947,0.032920272827148434,0.13377601776123046,9.709984107971191
249534540105625,-0.003014165675267577,-0.0019379822770133615,0.002380067016929388,0.04115034103393554,0.13572130661010742,9.709235919952391
249534550076625,-0.003438939806073904,-0.0035723643377423286,0.0007843009079806507,0.03980360260009765,0.13332710494995118,9.705644617462157
249534560047625,-0.0013512879377231002,-0.0015403723809868097,0.0018197379540652037,0.050727147674560547,0.14350246200561523,9.696516723632811
249534570017625,-0.0039265644736588,-0.000740625080652535,0.0020474381744861603,0.03142389678955078,0.1393126091003418,9.712378309631347
249534579988625,-0.0028876655269414186,-0.002921487670391798,0.0008351673022843897,0.03725976333618164,0.1318307289123535,9.726144969177245
249534589959625,-0.0009206547983922064,-0.0015089471125975251,0.0011965582380071282,0.041748891448974604,0.1240495735168457,9.718962364196777
249534599930625,-0.002459961920976639,-0.0010641991393640637,0.00033156355493701994,0.04519055633544922,0.13557166900634765,9.718363813781737
249534609901625,-0.0030687605030834675,-0.002043443499132991,0.0030570426024496555,0.03890577697753906,0.13003507766723632,9.69741454925537
249534619871625,-0.0026554379146546125,-0.001990979304537177,0.0006064017652533948,0.031573534393310544,0.1261444999694824,9.701155489349365
249534629842625,-0.000624777574557811,-0.0020604876335710287,0.0010764497565105557,0.04578910675048828,0.13901333389282225,9.700856214141846
249534639813625,-0.0032812808640301228,-0.0018258632626384497,0.002037318190559745,0.03396773605346679,0.12853870162963865,9.700856214141846
249534649784625,-0.0021339908707886934,-0.002695119008421898,0.0010540791554376483,0.03725976333618164,0.1336263801574707,9.686939916992188
249534659755625,-0.0021499700378626585,-0.0020682108588516712,0.000979244359768927,0.048931496429443354,0.13407529296874998,9.701155489349365
249534669726625,-0.0037092508282512426,-0.0023587618488818407,0.0020330571569502354,0.033518823242187495,0.12060790863037109,9.687837742614745
249534679696625,-0.004464257042855024,-0.001531850197352469,0.002049835165962577,0.040701428222656245,0.12599486236572266,9.711630121612549
249534689667625,-0.0030178942251950502,-0.002010686555877328,0.002186721656471491,0.0383072265625,0.13138181610107422,9.708038819122313
249534699638625,-0.0023092268966138363,-0.002014681464061141,0.0026253440883010626,0.041000703430175776,0.1327285545349121,9.706841718292235
249534709609625,-0.0031092404387891293,-0.0009070726810023189,0.0009800433181226254,0.04519055633544922,0.12644377517700195,9.704746791839598
249534719580625,-0.003323891432955861,-0.0022359900176525116,0.0012871057260781527,0.04384381790161133,0.1253963119506836,9.693075058746338
249534729551625,-0.003793140407651663,-0.0012636699248105288,-0.0006466155173256993,0.04279635467529297,0.13407529296874998,9.702502227783203
249534739521625,-0.003485811408609152,-0.0010394317796453834,0.0012578109744936228,0.046238019561767575,0.1379658706665039,9.701305126953125
249534749492625,-0.002816825406625867,-0.0027118970174342394,0.001645567244850099,0.036062662506103516,0.13946224670410157,9.70968483276367
249534759463625,-0.0032559807877987623,-0.00022983079543337226,0.0014034858904778957,0.05102642288208008,0.14050970993041992,9.704896429443359
249534769434625,-0.0028786107432097197,-0.0023467775899916887,-0.0004852279380429536,0.03890577697753906,0.12808978881835936,9.709984107971191
249534779405625,-0.0028184233233332634,-0.001472728094086051,0.0016492956783622503,0.04519055633544922,0.12719196319580078,9.709535195159912
249534789375625,-0.002653307281434536,-0.001287904684431851,0.002133458387106657,0.04384381790161133,0.1345242057800293,9.707889181518555
249534799346625,-0.0021917815320193768,-0.0021672805305570364,0.0015989618841558695,0.03860650177001953,0.14170681076049804,9.720758015441893
249534809317625,-0.002121740486472845,-0.0030005834996700287,0.0015954998089000583,0.041748891448974604,0.13033435287475587,9.701305126953125
249534819288625,-0.0029672940727323294,-0.0026756778825074434,0.001579787116497755,0.03531447448730469,0.1288379768371582,9.699509475708007
249534829259625,-0.002572879893705249,-0.0018181400373578072,-0.0004319647268857807,0.047584757995605464,0.13482348098754882,9.696217448425292
249534839230625,-0.0016176040517166257,-0.0024490428622812033,0.0010407633380964398,0.04638765716552734,0.13257891693115234,9.711630121612549
249534849200625,-0.0034525219816714525,-0.0018924422329291701,0.0011984225129708648,0.030226795959472655,0.1183633445739746,9.712827222442627
249534859171625,-0.0024375913199037313,-0.0021662150975316763,0.0024000408593565226,0.032920272827148434,0.13213000411987305,9.699659113311768
249534869142625,-0.0021614215802401304,-0.0015020228456705809,0.001353684812784195,0.04534019393920898,0.13242927932739257,9.692476508331298
249534879113625,-0.0015502260066568851,-0.0028900622855871916,0.0008649947121739388,0.03845686416625976,0.1249473991394043,9.695918173217773
249534889084625,-0.001989913871511817,-0.0029923277907073498,0.001395496423356235,0.05087678527832031,0.117465518951416,9.709834470367431
249534899055625,-0.0017960357945412397,-0.0018410432385280728,0.0012053466634824872,0.04025251541137695,0.131531453704834,9.701454764556884
249534909025625,-0.0029963224660605192,-0.0020093549974262714,0.0017867147689685225,0.037409400939941405,0.13467384338378904,9.719860189819336
249534918996625,-0.0015180017799139023,-0.0034266894217580557,-0.0005936186062172055,0.04384381790161133,0.1406593475341797,9.717765263366699
249534928967625,-0.0014793860027566552,-0.0018988338997587562,0.00033103092573583126,0.039055414581298825,0.1396118843078613,9.69756418685913
249534938938625,-0.003065032185986638,-0.002055161399766803,0.002478870330378413,0.041748891448974604,0.13602058181762694,9.690082306671142
249534948909625,-0.0016767261549830437,-0.0034943337086588144,0.002921754028648138,0.03995324020385742,0.13287819213867186,9.708936644744872
249534958880625,-0.002222940558567643,-0.0008434231276623905,0.0010921623324975371,0.035464112091064454,0.13991115951538086,9.700556938934326
249534968850625,-0.002260757377371192,-0.0019438412273302674,0.0011374361347407103,0.044292730712890624,0.13242927932739257,9.706841718292235
249534978821625,-0.003733219113200903,-0.001085504423826933,0.0024413196370005608,0.03366846084594726,0.13093290328979493,9.70504606704712
249534988792625,-0.002632800955325365,-0.0031292142812162638,0.0017667410429567099,0.04279635467529297,0.11866261978149413,9.695169985198975
249534998763625,-0.002365153282880783,-0.0026016421616077423,0.0013488910626620054,0.04129997863769531,0.13242927932739257,9.718962364196777
249535008734625,-0.0010926949325948954,-0.0023222763556987047,0.002581934677436948,0.03396773605346679,0.13198036651611328,9.718214176177979
249535018705625,-0.0034021881874650717,-0.0031015174463391304,0.0007251787465065718,0.04444236831665039,0.12674305038452147,9.698162737274169
249535028675625,-0.003808320267125964,-0.003209908027201891,-0.0012314456980675459,0.029628245544433593,0.1370680450439453,9.69083049468994
249535038646625,-0.0037670412566512823,-0.0023166837636381388,0.00105354655534029,0.043544542694091797,0.13213000411987305,9.709385557556152
249535048617625,-0.0034027209039777517,-0.0019385149935260415,0.0008764463127590716,0.039055414581298825,0.13437456817626953,9.719860189819336
249535058588625,-0.003635214874520898,-0.0020034960471093655,0.0011763182701542974,0.028131869506835935,0.12973580245971678,9.721955116271973
249535068559625,-0.0025965820532292128,-0.0014940333785489202,0.0015238607302308083,0.04833294601440429,0.12958616485595703,9.702951140594482
249535078530625,-0.0008428904693573713,-0.0023723437916487455,0.0008612662786617875,0.04414309310913086,0.13063362808227538,9.715221424102783
249535088500625,-0.0026296053547412157,-0.001838912721723318,0.0018013621447607875,0.0522235237121582,0.12674305038452147,9.700108026123047
249535098471625,-0.0011382350930944085,-0.0014034858904778957,0.0009765811264514923,0.03651157531738281,0.13123217849731444,9.70354969100952
249535108442625,-0.004796353168785572,-0.0034519892651587725,0.00017257283616345376,0.030825346374511717,0.13377601776123046,9.70354969100952
249535118413625,-0.0030660973861813545,-0.0019196064677089453,0.0011377023765817285,0.036062662506103516,0.13512275619506836,9.69831237487793
249535128384625,-0.0016295883106067777,-0.0014125406742095947,0.0020271982066333294,0.04129997863769531,0.13168109130859373,9.693075058746338
249535138355625,-0.00358834327198565,-0.0020477045327425003,0.0004950816510245204,0.04534019393920898,0.12389993591308593,9.707290631103515
249535148325625,-0.0027840686962008476,-0.002433596644550562,0.0013784521725028753,0.03995324020385742,0.13138181610107422,9.711929396820068
249535158296625,-0.001645567244850099,-0.001246625673957169,0.0011137339752167463,0.03725976333618164,0.1375169578552246,9.70354969100952
249535168267625,-0.002922020386904478,-0.0015246596885845065,0.0003355582884978503,0.037110125732421874,0.13587094421386717,9.703100778198241
249535178238625,-0.0020791299175471067,-0.003346794517710805,0.00098190747667104,0.03860650177001953,0.14350246200561523,9.70504606704712
249535188209625,-0.0034618431236594915,-0.0009675264009274542,0.0021821942646056414,0.039354689788818356,0.13602058181762694,9.687239192199707
249535198180625,-0.0022426480427384377,-0.001651159836910665,0.0009675264009274542,0.03232172241210937,0.127042325592041,9.709086282348633
249535208150625,-0.002763562137261033,-0.001356347929686308,-0.0004540689697023481,0.03456628646850586,0.12569558715820311,9.709385557556152
249535218121625,-0.0027201527263969183,-0.0019590212032198906,0.0016586167039349675,0.033818098449707026,0.1479915901184082,9.718064538574218
249535228092625,-0.0032109732273966074,-0.0014612764352932572,0.001115864492021501,0.042646717071533204,0.13138181610107422,9.711779759216308
249535238063625,-0.002305498579517007,-0.002573678968474269,0.0020509003661572933,0.04578910675048828,0.12808978881835936,9.704297879028319
249535248034625,-0.0020748688839375973,-0.001418932224623859,0.002409361768513918,0.043544542694091797,0.13557166900634765,9.706991355895996
249535258006292,-0.0008404936525039375,-0.001531850197352469,-0.00032197617110796273,0.04534019393920898,0.1345242057800293,9.711330846405028
249535267977292,-0.0018104169284924865,-0.0013201289111748338,0.0018727348651736975,0.054468087768554684,0.1253963119506836,9.699808750915526
249535277947292,-0.002118011936545372,-0.0020471718162298203,0.0009001484140753746,0.03980360260009765,0.1301847152709961,9.703100778198241
249535287918292,-0.0017712684348225594,-0.0013086773687973619,0.0016620787791907787,0.04833294601440429,0.12015899581909179,9.70354969100952
249535297889292,-0.0025864620693027973,-0.002846919232979417,0.002356631215661764,0.03366846084594726,0.1274912384033203,9.698910925292969
249535307860292,-0.003528155852109194,-0.0011499529937282205,0.002923884429037571,0.03067570877075195,0.13721768264770506,9.708936644744872
249535317831292,-0.002557699801400304,-0.00166607357095927,0.0004809668753296137,0.04189852905273437,0.13078326568603516,9.711630121612549
249535327802292,-0.004225637763738632,-0.0016045545926317573,0.0005848301807418466,0.04668693237304687,0.1227028350830078,9.70504606704712
249535337772292,-0.0021939121652394533,-0.0011518171522766352,0.0021286646369844675,0.03815758895874023,0.136619132232666,9.70369932861328
249535347743292,-0.0024173513520509005,-0.0037324202712625265,0.003029345767572522,0.03681085052490234,0.12913725204467771,9.699808750915526
249535357714292,-0.0021054951939731836,-0.002127066720277071,0.00023622238950338215,0.03755903854370117,0.131531453704834,9.706692080688477
249535367685292,-0.0023933828342705965,-0.0023313311394304037,0.0012042814632877707,0.043245267486572266,0.12823942642211913,9.699060562896728
249535377656292,-0.0017145430902019143,-0.0019411781104281545,0.000949150591623038,0.03426701126098632,0.12135609664916991,9.683647889709473
249535387627292,-0.0015883093001320958,-0.0009957558941096067,0.0021350563038140535,0.03621230010986328,0.13213000411987305,9.705943892669676
249535397598292,-0.003279150230810046,-0.0011664645280689,0.0010626012226566672,0.04803367080688476,0.12434884872436523,9.712527947235106
249535407568292,-0.002457564929500222,-0.001121723442338407,0.0007360977469943464,0.04938040924072265,0.12674305038452147,9.698761287689209
249535417539292,-0.0037561224307864904,-0.0009976201690733433,0.002234924817457795,0.03591302490234375,0.13242927932739257,9.714622873687743
249535427510292,-0.0038666436448693275,-0.002386192325502634,0.00199337606318295,0.04534019393920898,0.13557166900634765,9.706542443084716
249535437481292,-0.00407383730635047,-0.002213619416579604,0.0007334345718845725,0.051774610900878905,0.13108254089355467,9.698910925292969
249535447452292,-0.0027747475542128086,-0.0032085764687508345,0.002356897573918104,0.039055414581298825,0.1352723937988281,9.707290631103515
249535457423292,-0.0037550569977611303,-0.0019624833948910236,0.002159290947020054,0.03486556167602539,0.14260463638305662,9.706243167877197
249535467394292,-0.0026173547375947237,-0.0031997880432754755,0.0016935041639953852,0.04159925384521484,0.13676876983642577,9.718513451385498
249535477364292,-0.0015512913232669234,-0.0023012375459074974,0.0026341325137764215,0.051774610900878905,0.12868833923339842,9.695469260406494
249535487335292,-0.00347489258274436,-0.0027145601343363523,0.0014125406742095947,0.038756139373779294,0.12030863342285156,9.705345342254638
249535497306292,-0.003829359309747815,-0.0007898935582488775,0.0013116068439558148,0.044292730712890624,0.1388636962890625,9.706991355895996
249535507277292,-0.0018485001055523753,-0.0023435817565768957,0.0014271880500018597,0.04115034103393554,0.1327285545349121,9.694272159576416
249535517248292,-0.001668736687861383,-0.0031667647417634726,0.0002663161139935255,0.03890577697753906,0.13602058181762694,9.70369932861328
249535527219292,-0.0027047062758356333,-0.0020160130225121975,0.002243180526420474,0.0330699104309082,0.13557166900634765,9.707290631103515
249535537190292,-0.000824248360004276,-0.0011544802691787481,-0.0007286408799700439,0.0383072265625,0.13512275619506836,9.7039986038208
249535547160292,-0.0038362834602594376,-0.002088983543217182,0.001038366463035345,0.040102877807617184,0.12419921112060546,9.685892453765868
249535557131292,-0.0025867284275591373,-0.0018817896489053965,0.0020090886391699314,0.04055179061889648,0.13512275619506836,9.708487731933593
249535567102292,-0.002686863299459219,-0.0015608787070959806,0.0011046791914850473,0.03396773605346679,0.1301847152709961,9.699060562896728
249535577073292,-0.0031550468411296606,-0.0015502260066568851,0.0015981629258021712,0.03696048812866211,0.1292868896484375,9.720309102630615
249535587044292,-0.002447711303830147,-0.0038780951872467995,0.0009177253232337534,0.032920272827148434,0.13093290328979493,9.708637369537353
249535597015292,-0.004445348400622606,-0.0015752597246319056,0.00046152580762282014,0.029328970336914062,0.12479776153564452,9.69741454925537
249535606986292,-0.003931624814867973,-0.0017124125733971596,0.001835716888308525,0.042646717071533204,0.1279401512145996,9.693972884368895
249535616956292,-0.002977946773171425,-0.0012796488590538502,0.0012354403734207153,0.04399345550537109,0.13302782974243163,9.717615625762939
249535626927292,-0.0017068199813365936,-0.001683384063653648,0.0035308189690113068,0.034715924072265626,0.13482348098754882,9.699060562896728
249535636898292,-0.001847434788942337,-0.0019571571610867977,0.0013978932984173298,0.037708676147460936,0.12734160079956053,9.708487731933593
249535646869292,-0.0019891150295734406,-0.002117745578289032,0.0018679412314668298,0.04967968444824218,0.13422493057250975,9.69786346206665
249535656840292,-0.0014735270524397492,-0.0019542276859283447,0.0008974852971732616,0.03516483688354492,0.13781623306274413,9.703400053405762
249535666811292,-0.0031007183715701103,-0.0014032195322215557,0.0014101437991485,0.035763387298583985,0.13781623306274413,9.702352590179443
249535676782292,-0.0031848743092268705,-0.001751827308908105,0.002104163635522127,0.03965396499633789,0.14245499877929688,9.700556938934326
249535686753292,-0.0006317017832770944,-0.0022389194928109646,0.0015550197567790747,0.03172317199707031,0.1331774673461914,9.707440268707275
249535696723292,-0.0025180187076330185,-0.0021667478140443563,0.0006862966110929847,0.042048166656494135,0.13676876983642577,9.719860189819336
249535706694292,-0.0021811288315802813,-0.0018186726374551654,0.002294047037139535,0.031573534393310544,0.13856442108154296,9.696815998840332
249535716665292,-0.0030421288684010506,-0.001032507512718439,0.0010580739472061396,0.04608838195800781,0.12958616485595703,9.703400053405762
249535726636292,-0.003961452282965183,-0.0016229304019361734,0.0014439659425988793,0.0522235237121582,0.12479776153564452,9.702202952575684
249535736607292,-0.0005784385721199214,-0.003719637170433998,0.0005723133217543364,0.04668693237304687,0.13602058181762694,9.701155489349365
249535746578292,-0.0017811221769079566,-0.0016266588354483247,0.0025885924696922302,0.03142389678955078,0.13332710494995118,9.708787007141114
249535756549292,-0.0023430490400642157,-0.001972070662304759,0.0016879114555194974,0.04339490509033203,0.1331774673461914,9.70414824142456
249535766520292,-0.0017832526937127113,-0.0015725966077297926,0.0011478224769234657,0.04115034103393554,0.13811550827026367,9.705644617462157
249535776490292,-0.001933454885147512,-0.0019832560792565346,0.0014436995843425393,0.05940612869262695,0.12764087600708007,9.705644617462157
249535786461292,-0.003829892026260495,-0.0007933556917123497,0.0006303702248260379,0.04249707946777344,0.13242927932739257,9.705943892669676
249535796432292,-0.0026695525739341974,-0.0017827199772000313,0.0011014834744855762,0.04115034103393554,0.13512275619506836,9.692925421142577
249535806403292,-0.00367116741836071,-0.0011342403013259172,0.0009496832499280572,0.03950432739257812,0.1396118843078613,9.695618898010252
249535816374292,-0.0016847157385200262,-0.0012130698887631297,0.00227886694483459,0.04504091873168945,0.12569558715820311,9.702202952575684
249535826345292,-0.0021497036796063185,-0.0032924660481512547,0.0013105415273457766,0.03980360260009765,0.13168109130859373,9.714772511291503
249535836316292,-0.002734267385676503,-0.0026098978705704212,0.00010918960470007733,0.037409400939941405,0.1423053611755371,9.70459715423584
249535846287292,-0.004348942078649998,-0.002682602033019066,0.001987250754609704,0.043245267486572266,0.1318307289123535,9.707140993499756
249535856257292,-0.002834402257576585,-0.0012420982820913196,0.0019244002178311348,0.04668693237304687,0.12554594955444334,9.701005851745604
249535866228292,-0.0020719394087791443,-0.0018413095967844129,0.0004516721237450838,0.04085106582641601,0.13901333389282225,9.695319622802733
249535876199292,-0.002153698354959488,-0.001475391210988164,0.0009443568997085094,0.03277063522338867,0.12973580245971678,9.69696563644409
249535886170292,-0.004114317707717419,-0.0018972359830513597,0.0015552861150354147,0.046537294769287106,0.12165537185668944,9.713575410461425
249535896141292,-0.0019238675013184547,-0.0021022993605583906,3.5686356568476185e-05,0.033518823242187495,0.12240355987548827,9.700108026123047
249535906112292,-0.0028703550342470407,-0.0030240193009376526,0.0023238742724061012,0.041748891448974604,0.136619132232666,9.695618898010252
249535916083292,-0.0012687299167737365,-0.0024578312877565622,0.0008197209681384265,0.04504091873168945,0.13856442108154296,9.702651865386962
249535926054292,-0.004039216320961714,-0.0018618159228935838,0.002519882982596755,0.048183308410644526,0.12150573425292968,9.705644617462157
249535936025292,-0.002251702593639493,-0.0034378746058791876,0.0008490157779306173,0.03426701126098632,0.1345242057800293,9.702502227783203
249535945995292,-0.0026700852904468775,-0.0025856629945337772,0.00070520507870242,0.0526724365234375,0.12823942642211913,9.709385557556152
249535955966292,-0.0032405343372374773,-0.0003808320325333625,0.001829591696150601,0.04578910675048828,0.12315174789428711,9.710433020782471
249535965937292,-0.0024711471050977707,-0.002414954360574484,0.0019539613276720047,0.03516483688354492,0.13377601776123046,9.709086282348633
249535975908292,-0.000987766426987946,-0.001967543503269553,0.0012660667998716235,0.04519055633544922,0.12315174789428711,9.706392805480956
249535985879292,-0.002734533743932843,-0.0019065570086240768,0.002877012826502323,0.04803367080688476,0.13437456817626953,9.711929396820068
249535995850292,-0.0017994979862123728,-0.0018666095566004515,0.000645550258923322,0.03950432739257812,0.13901333389282225,9.700706576538085
249536005821292,-0.0038810246624052525,-0.0015217302134260535,0.0001382180635118857,0.0330699104309082,0.13407529296874998,9.709984107971191
249536015792292,-0.002426938619464636,-0.0008314388687722385,0.0015286544803529978,0.037708676147460936,0.12569558715820311,9.703400053405762
249536025763292,-0.003976898267865181,-0.002129996195435524,0.0013962953817099333,0.05087678527832031,0.13422493057250975,9.692177233123779
249536035733292,-0.00236328924074769,-0.0020010992884635925,0.0007680556736886501,0.047884033203124995,0.13766659545898435,9.701155489349365
249536045704292,-0.001844505313783884,-0.0020703414920717478,0.0006154565489850938,0.033219548034667964,0.1336263801574707,9.701155489349365
249536055675292,-0.004311923868954182,-0.0011709919199347496,-0.00041278995922766626,0.0326209976196289,0.13557166900634765,9.710433020782471
249536065646292,-0.002240251051262021,-0.0012431635987013578,0.00042770366417244077,0.04025251541137695,0.12150573425292968,9.694421797180174
249536075617292,-0.002691923175007105,-0.003079146845266223,0.0013909690314903855,0.04608838195800781,0.12988544006347655,9.70504606704712
249536085588292,-0.0016170714516192675,-0.0013915016315877438,0.0003438140847720206,0.04638765716552734,0.13976152191162108,9.706542443084716
249536095559292,-0.0012948289513587952,-0.003090864745900035,0.0016756609547883272,0.03486556167602539,0.1370680450439453,9.714922148895264
249536105530292,-0.0028538433834910393,-0.0016500946367159486,0.0015512913232669234,0.039354689788818356,0.13213000411987305,9.710881933593749
249536115501292,-0.0037734329234808683,-0.0010724549647420645,0.000669252360239625,0.04399345550537109,0.1327285545349121,9.706392805480956
249536125472292,-0.0023217438720166683,-0.0032977922819554806,0.0006495449924841523,0.03501519927978516,0.1361702194213867,9.718214176177979
249536135442292,-0.0018783274572342634,-0.002523611532524228,0.0004966795677319169,0.043245267486572266,0.14395137481689452,9.705644617462157
249536145413292,-0.003498062025755644,-0.0025917883031070232,0.0006487460341304541,0.03531447448730469,0.12868833923339842,9.708188456726074
249536155384292,-0.0026200178544968367,-0.0018016285030171275,0.0013523531379178166,0.04384381790161133,0.12240355987548827,9.692925421142577
249536165355292,-0.002801911672577262,-0.0018639464396983385,0.002213885774835944,0.03247136001586914,0.12868833923339842,9.700108026123047
249536175326292,-0.004388889297842979,-0.00256435782648623,0.00038456046604551375,0.040102877807617184,0.12913725204467771,9.689633393859863
249536185297292,-0.002282329136505723,-0.0020839234348386526,0.0014237258583307266,0.03501519927978516,0.12823942642211913,9.709235919952391
249536195268292,-0.0034903388004750013,-0.0013558153295889497,0.0020453077740967274,0.04997895965576172,0.13557166900634765,9.714323598480224
249536205239292,-0.001966744428500533,-0.0014120079576969147,0.0018807243322953582,0.04115034103393554,0.13347674255371092,9.699060562896728
249536215210292,-0.0019323896849527955,-0.002237854292616248,0.00038535939529538155,0.03696048812866211,0.1336263801574707,9.695169985198975
249536225181292,-0.003959854133427143,-0.0016769925132393837,0.0011648666113615036,0.03800795135498047,0.13063362808227538,9.706841718292235
249536235151292,-0.003924966789782047,-0.0006119944155216217,0.0008466189028695226,0.04803367080688476,0.13257891693115234,9.706392805480956
249536245122292,-0.0036064526066184044,-0.0016753945965319872,0.0016447682864964008,0.03561374969482422,0.1384147834777832,9.708038819122313
249536255093292,-0.002222940558567643,-0.0022602248936891556,0.0033547841012477875,0.0383072265625,0.12734160079956053,9.713874685668944
249536265064125,-0.002888730727136135,-0.0026085663121193647,0.000284159294096753,0.0282815071105957,0.12509703674316405,9.702951140594482
249536275035125,-0.004445348400622606,-0.001350488979369402,0.0008159925346262753,0.04474164352416992,0.13242927932739257,9.696067810821532
249536285006125,-0.0035918052308261395,-0.0013544837711378932,0.002222407842054963,0.03486556167602539,0.14080898513793944,9.695918173217773
249536294977125,-0.0035715652629733086,-0.0019497001776471734,0.001019990653730929,0.03860650177001953,0.13946224670410157,9.709235919952391
249536304948125,-0.004542553797364235,-0.0017784589435905218,0.000532632227987051,0.04833294601440429,0.11806406936645507,9.718812726593017
249536314919125,-0.002930808812379837,-0.002407231368124485,0.001876995898783207,0.04474164352416992,0.12719196319580078,9.71058265838623
249536324890125,-0.002409894485026598,-0.0029385320376604795,0.002372077666223049,0.04534019393920898,0.13676876983642577,9.69831237487793
249536334860125,-0.001032241270877421,-0.001930525409989059,0.001936917076818645,0.051774610900878905,0.12479776153564452,9.694870709991454
249536344831125,-0.0037979339249432087,-0.0010436928132548928,0.003890611929818988,0.04055179061889648,0.13302782974243163,9.716119249725342
249536354802125,-0.002688460983335972,-0.0016399745363742113,0.001916144392453134,0.038756139373779294,0.14724340209960937,9.709984107971191
249536364773125,-0.0041462755762040615,-0.0008356999605894089,0.0013318468118086457,0.047285482788085934,0.1393126091003418,9.69801309967041
249536374744125,-0.0015028218040242791,-0.001743305241689086,-0.0001030643325066194,0.04534019393920898,0.14036007232666015,9.703400053405762
249536384715125,-0.0027180220931768417,-0.0025185514241456985,0.0012463594321161509,0.0378583137512207,0.1227028350830078,9.703250415802001
249536394686125,-0.0011920308461412787,-0.003207244910299778,0.0011885687708854675,0.03860650177001953,0.12509703674316405,9.702951140594482
249536404657125,-0.00253426400013268,-0.0027827369049191475,0.0014927018200978637,0.04878185882568359,0.13512275619506836,9.68529390335083
249536414628125,-0.002160090021789074,-0.0029944581910967827,0.0021382521372288465,0.04369418029785156,0.131531453704834,9.702801502990722
249536424599125,-0.002573678968474269,-0.002255164785310626,0.001609081868082285,0.035763387298583985,0.14080898513793944,9.699509475708007
249536434570125,-0.0030919299460947514,-0.0022498385515064,0.0018109495285898447,0.04773439559936523,0.13572130661010742,9.689034843444823
249536444541125,-0.0035145736765116453,-0.0017768610268831253,0.0015488944482058287,0.04938040924072265,0.13766659545898435,9.701155489349365
249536454511125,-0.003355050226673484,-0.0022511701099574566,0.002267415402457118,0.03860650177001953,0.12868833923339842,9.719411277008057
249536464482125,-0.00253426400013268,-0.002002164488658309,0.001586178783327341,0.03277063522338867,0.13482348098754882,9.709235919952391
249536474453125,-0.0036975329276174307,-0.0014199974248185754,0.0016860472969710827,0.03845686416625976,0.14320318679809568,9.705345342254638
249536484424125,-0.003964648116379976,-0.0019497001776471734,0.0008671252289786935,0.03621230010986328,0.13826514587402344,9.69801309967041
249536494395125,-0.0015462313313037157,8.04274677648209e-05,0.0011664645280689,0.037110125732421874,0.13108254089355467,9.706243167877197
249536504366125,-0.003579821204766631,-0.0014711301773786545,0.0021675468888133764,0.033518823242187495,0.1379658706665039,9.711330846405028
249536514337125,-0.0028900622855871916,-0.0013640711549669504,0.001038632821291685,0.0378583137512207,0.13213000411987305,9.699509475708007
249536524308125,-0.002373675350099802,-0.002373675350099802,0.0018330537714064121,0.03800795135498047,0.13257891693115234,9.71013374557495
249536534279125,-0.0021547635551542044,-0.001955559244379401,0.0016825852217152715,0.037708676147460936,0.12285247268676758,9.706542443084716
249536544250125,-0.0023579627741128206,-0.0024293356109410524,-0.0001400822657160461,0.03980360260009765,0.13602058181762694,9.69771382446289
249536554221125,-0.0018271948210895061,-0.0018074874533340335,0.0014375743921846151,0.037110125732421874,0.1322796417236328,9.7039986038208
249536564192125,-0.0024474449455738068,-0.0031289479229599237,-0.0006380933918990195,0.04399345550537109,0.14290391159057617,9.699659113311768
249536574163125,-0.0009273127070628107,-0.0019560917280614376,0.001773132593370974,0.04189852905273437,0.13138181610107422,9.69831237487793
249536584134125,-0.003472495824098587,-0.0020682108588516712,0.00017337177996523678,0.03965396499633789,0.1258452247619629,9.700407301330566
249536594104125,-0.002588326344266534,-0.0020820593927055597,0.0008609999786131084,0.02858078231811523,0.13003507766723632,9.699210200500488
249536604075125,-0.004573180340230465,-0.0012745888670906425,0.002285258611664176,0.037110125732421874,0.12988544006347655,9.695768535614013
249536614046125,-0.0028306739404797554,-0.0025619608350098133,0.0005797701887786388,0.029328970336914062,0.12449848632812499,9.71118120880127
249536624017125,-0.001329982653260231,-0.0020762004423886538,0.001847434788942337,0.040102877807617184,0.12479776153564452,9.714772511291503
249536633988125,-0.0016820525052025914,-0.0010791128734126687,0.0019201391842216253,0.048931496429443354,0.1188122573852539,9.706991355895996
249536643959125,-0.0029313412960618734,-0.001612544059753418,0.0015701997326686978,0.050727147674560547,0.13033435287475587,9.706542443084716
249536653930125,-0.002814428647980094,-0.0019534286111593246,0.0009502158500254154,0.03651157531738281,0.13407529296874998,9.698910925292969
249536663901125,-0.0029579729307442904,-0.0010133327450603247,0.0019859191961586475,0.02977788314819336,0.12255319747924803,9.704896429443359
249536673872125,-0.001350222621113062,-0.0008484831196255982,0.0007233145297504961,0.03696048812866211,0.1379658706665039,9.708188456726074
249536683843125,-0.0018767296569421887,-0.0014626081101596355,-0.0001560612436151132,0.036361937713623046,0.1393126091003418,9.708338094329834
249536693814125,-0.003981958609074354,-0.0030511836521327496,0.0007605988066643476,0.04938040924072265,0.1304839904785156,9.717615625762939
249536703785125,-0.003201652318239212,-0.0011547466274350882,0.0018378474051132798,0.031573534393310544,0.13003507766723632,9.702801502990722
249536713756125,-0.0025273398496210575,-0.0006343649583868682,-0.00022370553051587194,0.04414309310913086,0.12330138549804687,9.702202952575684
249536723727125,-0.003328951308503747,-0.001327053178101778,0.0011582087026908994,0.03920505218505859,0.13676876983642577,9.703400053405762
249536733698125,-0.0035340148024260998,-0.003216566052287817,0.0021944446489214897,0.030825346374511717,0.13332710494995118,9.708936644744872
249536743669125,-0.0034410704392939806,-0.004063717555254698,0.0025366609916090965,0.04997895965576172,0.14469956283569335,9.689932669067382
249536753639125,-0.003328418591991067,-0.0017691379180178046,-0.00015393071225844324,0.03681085052490234,0.13003507766723632,9.69127940750122
249536763610125,-0.0032051142770797014,-0.002385659608989954,0.0011981561547145247,0.03696048812866211,0.14484920043945312,9.699958388519287
249536773581125,-0.0032408006954938173,-0.0011046791914850473,0.0004037352045997977,0.033518823242187495,0.12958616485595703,9.69846201248169
249536783552125,-0.00330205331556499,-0.002110288944095373,0.001237571006640792,0.050427872467041016,0.1261444999694824,9.714772511291503
249536793523125,-0.002551840851083398,-0.001967010786756873,0.0008998821140266955,0.04878185882568359,0.13811550827026367,9.70414824142456
249536803494125,-0.002683134749531746,-0.0026788737159222364,0.000925448490306735,0.03202244720458984,0.1352723937988281,9.700407301330566
249536813465125,-0.002822417998686433,-0.0015643407823517919,0.0013185309944674373,0.036361937713623046,0.136619132232666,9.684246440124511
249536823436125,-0.002380333375185728,-0.0022184131667017937,0.0021736719645559788,0.04219780426025391,0.12090718383789062,9.703100778198241
249536833407125,-0.002404035534709692,-0.0021433120127767324,0.0012679309584200382,0.042646717071533204,0.12389993591308593,9.699359838104247
249536843378125,-0.002993126632645726,-0.003287672298029065,0.0015571502735838294,0.039354689788818356,0.13736732025146484,9.707140993499756
249536853349125,-0.0016586167039349675,-0.0025928535033017397,0.0013227921444922686,0.03681085052490234,0.11701660614013672,9.700108026123047
249536863320125,-0.0024288028944283724,-0.0026043052785098553,0.0008764463127590716,0.03845686416625976,0.13587094421386717,9.700407301330566
249536873291125,-0.002276470186188817,-0.0022570290602743626,0.0019030949333682656,0.039055414581298825,0.13138181610107422,9.69741454925537
249536883262125,-0.003427221905440092,-0.002546514617279172,0.001686846255324781,0.041000703430175776,0.12868833923339842,9.715670336914062
249536893233125,-0.0036312201991677284,-0.0025939189363271,0.0014745922526344657,0.03501519927978516,0.13676876983642577,9.71581997451782
249536903204125,-0.0030623688362538815,-0.0025561018846929073,0.0021113541442900896,0.03950432739257812,0.14110826034545898,9.706243167877197
249536913175125,7.456851017195731e-05,-0.004336425103247166,0.0007177218794822693,0.04025251541137695,0.14021043472290037,9.698162737274169
249536923146125,-0.003497795667499304,-0.003023486817255616,0.0013648699969053268,0.03815758895874023,0.14559738845825196,9.695918173217773
249536933116125,-0.00264744833111763,-0.0030775489285588264,0.0006221143994480371,0.04055179061889648,0.12973580245971678,9.70354969100952
249536943087125,-0.003230947069823742,-0.0020783308427780867,0.00040320257539860904,0.043544542694091797,0.13811550827026367,9.702502227783203
249536953058125,-0.0030538467690348625,-0.0017326525412499905,0.0019678096286952496,0.029328970336914062,0.12524667434692383,9.69741454925537
249536963029125,-0.004113518632948399,-0.0017710020765662193,0.0006077333819121122,0.03621230010986328,0.12808978881835936,9.710433020782471
249536973000125,-0.0026165556628257036,-0.002793123247101903,0.0023987090680748224,0.05491700057983398,0.12644377517700195,9.704896429443359
249536982971125,-0.0014892396284267306,1.3582121027866378e-05,-0.0001776328426785767,0.03845686416625976,0.13108254089355467,9.71118120880127
249536992942125,-0.0019829897210001945,-0.0017094830982387066,0.0020698087755590677,0.03965396499633789,0.1331774673461914,9.715670336914062
249537002913125,-0.0018849853659048676,-0.0007209177128970623,0.001460743835195899,0.037110125732421874,0.1352723937988281,9.704297879028319
249537012884125,-0.0037385455798357725,-0.003221093211323023,-0.00014274542627390474,0.03755903854370117,0.13901333389282225,9.704746791839598
249537022855125,-0.003667971817776561,-0.00043595946044661105,-0.0005424859118647873,0.03950432739257812,0.12988544006347655,9.693374333953857
249537032826125,-0.0040823593735694885,-0.0016612798208370805,0.0004391552647575736,0.0618003303527832,0.12988544006347655,9.707739543914794
249537042797125,-0.0027363980188965797,-0.0025925873778760433,0.000627973407972604,0.04474164352416992,0.1345242057800293,9.699060562896728
249537052768125,-0.0032285500783473253,-0.0020532971248030663,0.0010266485624015331,0.05162497329711914,0.13257891693115234,9.7039986038208
249537062739125,-0.0011566109023988247,-0.002139317337423563,0.0013739247806370258,0.045938744354248044,0.1370680450439453,9.709086282348633
249537072710125,-0.003771568648517132,-0.002487126039341092,0.0004522047529462725,0.0383072265625,0.136619132232666,9.715969612121581
249537082681125,-0.0019166769925504923,-0.002305764937773347,0.0016205335268750787,0.03980360260009765,0.13781623306274413,9.708637369537353
249537092652125,-0.0018434401135891676,-0.001201884588226676,0.0012383698485791683,0.050727147674560547,0.13766659545898435,9.708936644744872
249537102623125,-0.002776611829176545,-0.0006143912323750556,0.0018964370246976614,0.036361937713623046,0.1279401512145996,9.713276135253906
249537112594125,-0.002211222657933831,-0.002813629573211074,0.001955026527866721,0.041000703430175776,0.13467384338378904,9.696067810821532
249537122565125,-0.002320145955309272,-0.0022098910994827747,0.0006016080733388662,0.03815758895874023,0.13332710494995118,9.703848966217041
249537132536125,-0.0018458369886502624,-0.0003102582704741508,0.0012926984345540404,0.030974983978271482,0.1279401512145996,9.70369932861328
249537142507125,-0.0020450414158403873,-0.0022011026740074158,0.00025832661776803434,0.03441664886474609,0.12464812393188476,9.706841718292235
249537152478125,-0.002785400254651904,-0.0016391756944358349,-0.00044607947347685695,0.047884033203124995,0.12734160079956053,9.701454764556884
249537162449125,-0.001996571896597743,-0.0022082931827753782,0.0005677859298884869,0.02858078231811523,0.12554594955444334,9.700556938934326
249537172420125,-0.003998203668743372,-0.0016828514635562897,0.002585130510851741,0.027533319091796873,0.13512275619506836,9.694421797180174
249537182390125,-0.00410499656572938,-0.0010391654213890433,0.002111886627972126,0.04668693237304687,0.12868833923339842,9.689483756256102
249537192361125,-0.003961984533816576,-0.0033539850264787674,0.00022077605535741895,0.04339490509033203,0.12674305038452147,9.707440268707275
249537202332125,-0.0025561018846929073,-0.001826662220992148,0.0034298852551728487,0.03725976333618164,0.12764087600708007,9.70504606704712
249537212303125,-0.0027348001021891832,-0.00404454255476594,0.0016157397767528892,0.04055179061889648,0.13213000411987305,9.705345342254638
249537222274125,-0.001990180229768157,-0.0009704558760859072,0.001811748486943543,0.03995324020385742,0.13377601776123046,9.708338094329834
249537232245125,-0.0030064424499869347,-0.001942509668879211,0.001942509668879211,0.044592005920410155,0.12868833923339842,9.7039986038208
249537242216125,-0.004299407359212637,-0.0027329358272254467,0.002621083054691553,0.040701428222656245,0.12195464706420897,9.704896429443359
249537252187125,-0.0027800737880170345,-0.0015765913994982839,0.0013582120882347226,0.044292730712890624,0.14215572357177733,9.712527947235106
249537262158125,-0.004028031136840582,-0.002971288748085499,0.0007323693134821951,0.044891281127929686,0.13407529296874998,9.71731635055542
249537272129125,-0.0022144184913486242,-0.0009712548344396055,0.0008604673203080893,0.040701428222656245,0.12644377517700195,9.716119249725342
249537282100125,-0.002808036981150508,-0.002832538215443492,0.0019952403381466866,0.03666121292114258,0.12629413757324218,9.692925421142577
249537292071125,-0.002561428351327777,-0.0027196200098842382,0.0002567287301644683,0.037708676147460936,0.1283890640258789,9.696516723632811
249537302042125,-0.004766525700688362,-0.0008058725506998599,0.0019600866362452507,0.0330699104309082,0.14888941574096679,9.700856214141846
249537312013125,-0.0029579729307442904,-0.0023497070651501417,0.0021470405627042055,0.04938040924072265,0.14739303970336914,9.703848966217041
249537321984125,-0.0007635282818228006,-0.002909237053245306,0.001678057829849422,0.03860650177001953,0.13108254089355467,9.708936644744872
249537331955125,-0.003279150230810046,-0.0013499563792720437,0.002041046740487218,0.033219548034667964,0.12210428466796874,9.705644617462157
249537341926125,-0.0022767363116145134,-0.0005195827106945217,0.0036458675749599934,0.047884033203124995,0.1441010124206543,9.693374333953857
249537351897125,-0.0013638047967106104,0.00039601203752681613,0.00011824435205198824,0.06628945846557617,0.16041151123046873,9.693823246765136
249537361868125,-0.0001395496365148574,-0.000850879936479032,0.00024714134633541107,0.012719196319580078,0.08933364944458007,9.716568162536621
249537371839125,-0.0016431703697890043,-0.001064731739461422,0.001913481275551021,0.03202244720458984,0.08933364944458007,9.71641852493286
249537381810125,-0.0011313108261674643,-0.002320145955309272,0.001190166687592864,0.0020949264526367185,0.11282675323486327,9.658508772277832
249537391781125,-0.0020088222809135914,-0.0041095237247645855,-0.0010801780736073852,0.0326209976196289,0.17642273483276366,9.688585930633545
249537401752125,-0.000767523015383631,-0.0005065332516096532,0.001538241864182055,0.037409400939941405,0.15038579177856445,9.744849669647216
249537411723125,-0.0031467911321669817,-0.002118278294801712,0.0013582120882347226,0.0613514175415039,0.12285247268676758,9.682151513671874
249537421694125,-0.003468500915914774,-0.003309244057163596,0.0017560884589329362,0.0652419952392578,0.10369885940551757,9.671227968597412
249537431665125,-0.002570483135059476,-0.00032570460462011397,0.002114816103130579,0.042945992279052735,0.1331774673461914,9.71028338317871
249537441636125,-0.002085521351546049,-0.002133192028850317,0.00016671388584654778,0.04444236831665039,0.14948796615600585,9.709086282348633
249537451607125,-0.002581934677436948,-0.0024000408593565226,0.0016490293201059103,0.011971008300781249,0.1345242057800293,9.657910221862792
249537461578125,-0.0029230855870991945,-0.001127316034398973,0.0011968245962634683,0.015861585998535155,0.11985972061157225,9.727641345214844
249537471549125,-0.0019323896849527955,5.4861116950633004e-05,0.0006881608278490603,0.03995324020385742,0.11477204208374023,9.715071786499022
249537481520125,-0.00196354859508574,-0.002913231961429119,0.001600559800863266,0.04563946914672851,0.12599486236572266,9.664943189239501
249537491491125,-0.0020748688839375973,-0.004459463059902191,0.0015928366919979453,0.04608838195800781,0.1518821678161621,9.715520699310302
249537501462125,-0.0032703618053346872,-0.0013752563390880823,-2.210423735959921e-05,0.043245267486572266,0.14080898513793944,9.738864165496826
249537511433125,-0.0041039311327040195,-8.57537888805382e-05,0.0034176346380263567,0.043245267486572266,0.11596914291381835,9.677363110351562
249537521404125,-0.0027662254869937897,-0.004595550708472729,0.0008780442294664681,0.030526071166992186,0.1253963119506836,9.686191728973387
249537531375125,-0.0014018879737704992,-0.002016811864450574,0.0008777778712101281,0.02483984222412109,0.12719196319580078,9.738115977478026
249537541346125,-0.0028037759475409985,-0.0006466155173256993,0.0007683219737373292,0.027234043884277342,0.14260463638305662,9.69771382446289
249537551317125,-0.001966478070244193,-0.002168345730751753,0.0013701963471248746,0.02977788314819336,0.13123217849731444,9.675866734313963
249537561288125,-0.0001901497016660869,-0.000294545607175678,0.0007938882918097079,0.04055179061889648,0.1327285545349121,9.727042794799804
249537571259125,-0.002403236459940672,-0.0010098706698045135,0.002310824813321233,0.036062662506103516,0.12689268798828124,9.715520699310302
249537581230125,-0.0037148434203118086,-0.0024884575977921486,0.0008277104352600873,0.03621230010986328,0.13392565536499024,9.685892453765868
249537591201125,-0.004012318328022957,-0.0022008363157510757,0.002180596347898245,0.03845686416625976,0.1444002876281738,9.709834470367431
249537601172125,-0.001907355966977775,-0.002459961920976639,0.0023097596131265163,0.0579097526550293,0.13871405868530273,9.713126497650146
249537611143125,-0.0029553098138421774,-0.0016168050933629274,0.0018181400373578072,0.0613514175415039,0.11776479415893554,9.6917283203125
249537621114125,-0.0013699301052838564,-0.0024258734192699194,0.0018546254141256213,0.04504091873168945,0.12135609664916991,9.689034843444823
249537631085125,-0.002989664673805237,-0.0017768610268831253,0.0017864484107121825,0.032172084808349606,0.13482348098754882,9.713575410461425
249537641056125,-0.002779274946078658,-0.0015363775892183185,0.0019286612514406443,0.027682956695556638,0.12285247268676758,9.704746791839598
249537651027125,-0.004022704903036356,-0.0019172097090631723,0.0009475527331233025,0.027383681488037107,0.13287819213867186,9.69741454925537
249537660998125,-0.0031071100383996964,-0.0024349282030016184,0.0010165285784751177,0.031573534393310544,0.11626841812133788,9.724349317932129
249537670969125,-0.0024229439441114664,-0.0019542276859283447,0.0023190807551145554,0.04115034103393554,0.13392565536499024,9.728838446044922
249537680940125,-0.0031135017052292824,-0.003428020980209112,0.0027419906109571457,0.050727147674560547,0.13242927932739257,9.704297879028319
249537690911125,-0.0032415995374321938,-0.0022831279784440994,-0.0004474110610317439,0.04444236831665039,0.1274912384033203,9.70504606704712
249537700882125,-0.002151035238057375,-0.0014945659786462784,0.001350222621113062,0.031573534393310544,0.13602058181762694,9.709086282348633
249537710853125,-0.0026027073618024588,-0.0018375811632722616,0.0009920274605974555,0.023642741394042967,0.1345242057800293,9.690082306671142
249537720824125,-0.004796885885298252,-0.002113218419253826,0.00039974047103896737,0.028131869506835935,0.12674305038452147,9.701754039764404
249537730795125,-0.0036759611684828997,-0.0032730249222368,0.0015385081060230732,0.047285482788085934,0.13063362808227538,9.725696056365965
249537740766125,-0.003900199430063367,-0.002029328839853406,0.0012452941155061126,0.058657940673828124,0.13123217849731444,9.702202952575684
249537750737125,-0.0036975329276174307,-0.00152332813013345,0.0016357135027647018,0.058957215881347655,0.1396118843078613,9.696217448425292
249537760708125,-0.0022096247412264347,-0.0005033374181948602,-0.0002580603177193552,0.0570119270324707,0.1279401512145996,9.711031571197509
249537770679125,-0.0029646309558302164,-0.0009153284481726587,0.0011587414192035794,0.041748891448974604,0.12868833923339842,9.709535195159912
249537780650125,-0.0018753979820758104,-0.0018780612153932452,5.699164830730297e-05,0.018704700469970702,0.13123217849731444,9.69771382446289
249537790621125,-0.0024370586033910513,-0.002100967802107334,-0.0013148026773706079,0.023343466186523436,0.13676876983642577,9.726593881988524
249537800592125,-0.002541188383474946,-0.0024975123815238476,0.0005571332876570523,0.036361937713623046,0.12973580245971678,9.71028338317871
249537810563125,-0.0020682108588516712,-0.0008428904693573713,0.0021949773654341698,0.04908113403320312,0.1396118843078613,9.696815998840332
249537820534125,-0.0021172130946069956,-0.00145195540972054,0.001942776027135551,0.047884033203124995,0.13467384338378904,9.70369932861328
249537830505125,-0.003224555402994156,-0.001484179636463523,-9.214537567459047e-05,0.03800795135498047,0.13916297149658202,9.701454764556884
249537840476125,-0.0037976677995175123,-0.0018812569323927164,0.0017044231062754989,0.04159925384521484,0.14125789794921875,9.702651865386962
249537850447125,-0.0031641016248613596,-0.0028642297256737947,0.001356347929686308,0.037708676147460936,0.12779051361083985,9.69142904510498
249537860418125,-0.004265584982931614,-0.0028162929229438305,-0.0004854942671954632,0.02498947982788086,0.13482348098754882,9.715221424102783
249537870389125,-0.0023960459511727095,-0.0004426173691172153,0.000535561703145504,0.02498947982788086,0.13557166900634765,9.706692080688477
249537880360125,-0.003376621985808015,-0.001597630325704813,0.0026136261876672506,0.05357026214599609,0.1331774673461914,9.689633393859863
249537890331125,-0.002359560690820217,-0.00199390877969563,0.001588841900229454,0.05027823486328125,0.1249473991394043,9.701903677368163
249537900302125,-0.003207244910299778,-0.0022154836915433407,-0.00024341292737517506,0.03501519927978516,0.13991115951538086,9.714473236083984
249537910273125,-0.002582201035693288,-0.0027427896857261658,0.001466336427256465,0.036062662506103516,0.12898761444091797,9.696516723632811
249537920244125,-0.0052232579328119755,-0.0019030949333682656,0.001433845958672464,0.043245267486572266,0.13123217849731444,9.694571434783935
249537930215125,-0.0015073491958901286,-0.0036767602432519197,0.001957423286512494,0.04384381790161133,0.1423053611755371,9.711330846405028
249537940186125,-0.0025561018846929073,0.00017070861940737814,0.0029230855870991945,0.04833294601440429,0.12330138549804687,9.702053314971923
249537950157125,-0.002871153876185417,-0.002519350266084075,0.0011499529937282205,0.042646717071533204,0.1318307289123535,9.689633393859863
249537960128125,-0.002867691917344928,-0.0021611552219837904,0.0023129554465413094,0.03232172241210937,0.1301847152709961,9.712079034423828
249537970099125,-0.0034285534638911486,-0.0032147017773240805,0.0014796522445976734,0.019901801300048826,0.12599486236572266,9.70459715423584
249537980070125,-0.005869074258953333,-0.0031824775505810976,0.0008495483780279756,0.04234744186401367,0.12000935821533203,9.701454764556884
249537990041125,-0.0031308121979236603,-0.002912699244916439,0.0015403723809868097,0.04249707946777344,0.1236006607055664,9.713874685668944
249538000012125,-0.0002671150432433933,-0.0022327941842377186,0.00013448962999973446,0.043544542694091797,0.13946224670410157,9.708637369537353
249538009983125,-0.002418150193989277,-0.0030088394414633512,0.0031137678306549788,0.04848258361816406,0.14125789794921875,9.692476508331298
249538019954125,-0.0032498554792255163,-0.0028794098179787397,0.00038269624928943813,0.048931496429443354,0.12958616485595703,9.686939916992188
249538029925125,-0.002400306984782219,-0.0012343751732259989,0.0001395496365148574,0.032172084808349606,0.12674305038452147,9.699659113311768
249538039896125,-0.002167813014239073,-0.0024525050539523363,0.0010428938549011946,0.04085106582641601,0.1327285545349121,9.712079034423828
249538049867125,-0.005002215504646301,-0.0009571401169523597,0.002046905690804124,0.03591302490234375,0.1258452247619629,9.706692080688477
249538059838125,-0.003001648932695389,-0.0035172367934137583,0.0012061456218361855,0.02663549346923828,0.14170681076049804,9.71013374557495
249538069809125,-0.0018516959389671683,-0.0010311759542673826,0.0005661880713887513,0.0430956298828125,0.1304839904785156,9.69771382446289
249538079780125,-0.0007954862085171044,-0.0024085629265755415,0.0017499631503596902,0.04504091873168945,0.13976152191162108,9.701454764556884
249538089751125,-0.003221892286092043,-0.0010950918076559901,0.0003587277897167951,0.028131869506835935,0.13078326568603516,9.706841718292235
249538099722125,-0.0029108349699527025,-0.002204298507422209,0.0021544971968978643,0.04444236831665039,0.12764087600708007,9.70459715423584
249538109693125,-0.0034205641131848097,-0.0014900385867804289,-0.00044474788592197,0.044891281127929686,0.13287819213867186,9.71058265838623
249538119664125,-0.0021025657188147306,-0.0020836573094129562,0.00152359448838979,0.040102877807617184,0.13392565536499024,9.700556938934326
249538129636125,-0.003215500619262457,-0.002070873975753784,0.0013334447285160422,0.04025251541137695,0.14469956283569335,9.697264911651612
249538139607125,-0.0015880429418757558,-0.0022778017446398735,0.001659948262386024,0.04863222122192382,0.14110826034545898,9.711480484008788
249538149578125,-0.002805906580761075,-0.0021281319204717875,0.0004146541759837419,0.04279635467529297,0.1261444999694824,9.711031571197509
249538159549125,-0.003625627374276519,-0.0022066952660679817,0.00043356261448934674,0.04713584518432617,0.13467384338378904,9.713874685668944
249538169520125,-0.002453836612403393,-0.0008724515791982412,0.0007779093575663865,0.04638765716552734,0.13916297149658202,9.70444751663208
249538179491125,-0.0024762072134763002,-0.001389637473039329,0.0011883024126291275,0.04144961624145507,0.12943652725219726,9.690082306671142
249538189462125,-0.004012051969766617,-0.0017070862231776118,5.5926382628967986e-05,0.0282815071105957,0.14589666366577148,9.692177233123779
249538199433125,-0.0036184368655085564,-0.0028788771014660597,0.00155288923997432,0.03486556167602539,0.1375169578552246,9.696367086029053
249538209404125,-0.0021616879384964705,-0.001847701147198677,0.00290417717769742,0.04504091873168945,0.13467384338378904,9.695918173217773
249538219375125,-0.0030983216129243374,-0.0020881847012788057,0.0012844426091760397,0.041000703430175776,0.12973580245971678,9.699958388519287
249538229346125,-0.0034844798501580954,-0.002459961920976639,0.001279116258956492,0.04908113403320312,0.14050970993041992,9.701604402160644
249538239317125,-0.002633600030094385,-0.001701759872958064,0.0008237157016992569,0.047884033203124995,0.12898761444091797,9.692925421142577
249538249288125,-0.0017664746847003698,-0.0015419702976942062,0.0015488944482058287,0.040102877807617184,0.13646949462890623,9.693523971557617
249538259259125,-0.0022716764360666275,-0.0025063008069992065,0.0015931029338389635,0.030825346374511717,0.13392565536499024,9.700556938934326
249538269229875,-0.0019172097090631723,-0.0019648801535367966,0.0004588626616168767,0.03950432739257812,0.1379658706665039,9.699659113311768
249538279200875,-0.002104163635522127,-0.002950782421976328,0.0024623586796224117,0.04085106582641601,0.1452981132507324,9.696666361236572
249538289171875,-0.0027206854429095984,-0.0009587379754520953,0.000218645524000749,0.048931496429443354,0.13602058181762694,9.698910925292969
249538299142875,-0.0026229473296552896,-0.001648496720008552,0.0008833705214783549,0.03950432739257812,0.12135609664916991,9.686491004180908
249538309113875,-0.0025561018846929073,-0.001832787413150072,-4.447478931979276e-05,0.03980360260009765,0.13168109130859373,9.69741454925537
249538319084875,-0.003031476167961955,-0.001448759576305747,0.0023007048293948174,0.037409400939941405,0.12419921112060546,9.701903677368163
249538329055875,-0.0023497070651501417,-0.0010783139150589705,-0.00016671388584654778,0.04189852905273437,0.13602058181762694,9.71686743774414
249538339026875,-0.0032059133518487215,-0.002441852353513241,0.0004878911131527275,0.039055414581298825,0.14260463638305662,9.700257663726806
249538348997875,-0.002326271263882518,-0.002430400811135769,0.0030748858116567135,0.04848258361816406,0.13108254089355467,9.699060562896728
249538358968875,-0.002959837205708027,-0.0013187973527237773,0.0010655306978151202,0.04159925384521484,0.136619132232666,9.700856214141846
249538368939875,-0.0021409152541309595,-0.003614708548411727,0.0022005699574947357,0.033518823242187495,0.12988544006347655,9.712378309631347
249538378910875,-0.001764344167895615,-0.0029017801862210035,0.0025563682429492474,0.043245267486572266,0.13437456817626953,9.706841718292235
249538388882875,-0.002001631772145629,-0.0003350256592966616,0.00027537086862139404,0.037110125732421874,0.14125789794921875,9.705644617462157
249538398853875,-0.0025569009594619274,-0.00250603468157351,0.0030304109677672386,0.04279635467529297,0.12644377517700195,9.689932669067382
249538408824875,-0.003419232554733753,-0.0031702269334346056,0.0019518306944519281,0.03696048812866211,0.13287819213867186,9.696516723632811
249538418795875,-0.0026373283471912146,-0.0013986921403557062,0.002118811011314392,0.03516483688354492,0.13691840744018555,9.71686743774414
249538428766875,-0.0026557042729109526,-0.0009563411585986614,0.0028479844331741333,0.04399345550537109,0.13213000411987305,9.695618898010252
249538438737875,-0.0032658344134688377,-0.0032599754631519318,0.001145159243606031,0.041748891448974604,0.1414075355529785,9.689932669067382
249538448708875,-0.0023758059833198786,-0.0020956413354724646,0.0007187871960923076,0.031124621582031248,0.13302782974243163,9.69741454925537
249538458679875,-0.0021696772892028093,-0.0023675502743571997,0.0015763250412419438,0.03696048812866211,0.1388636962890625,9.71058265838623
249538468650875,-0.0036599822342395782,-0.0017068199813365936,0.0024855281226336956,0.04863222122192382,0.12734160079956053,9.69068085708618
249538478621875,-0.0019358517602086067,-0.002020540414378047,0.0016082830261439085,0.04519055633544922,0.1352723937988281,9.694272159576416
249538488592875,-0.003287672298029065,-0.001074052881449461,0.001484712352976203,0.048183308410644526,0.12045827102661132,9.719112001800536
249538498563875,-0.0024857944808900356,-0.00370179396122694,0.0016945693641901016,0.03336918563842773,0.1393126091003418,9.709385557556152
249538508534875,-0.001365402713418007,-0.0024951156228780746,0.0013741911388933659,0.04803367080688476,0.12315174789428711,9.705794255065918
249538518505875,-0.002132392954081297,-0.0024202808272093534,0.00037523938226513565,0.042945992279052735,0.11851298217773437,9.71013374557495
249538528476875,-0.003945739474147558,-0.0017209346406161785,0.0015630092239007354,0.050727147674560547,0.12509703674316405,9.701305126953125
249538538447875,-0.0026224146131426096,-0.002417883835732937,0.0007392935222014785,0.049230771636962885,0.12674305038452147,9.687837742614745
249538548418875,-0.0023406522814184427,-0.0014679343439638615,0.0016855146968737245,0.03980360260009765,0.1288379768371582,9.71073229598999
249538558389875,-0.0015515576815232635,-0.00219551008194685,0.001181378262117505,0.03591302490234375,0.12719196319580078,9.702502227783203
249538568360875,-0.002457564929500222,-0.0013097425689920783,0.0013456953456625342,0.03202244720458984,0.13093290328979493,9.689184481048583
249538578332875,-0.003655987558886409,-0.001913481275551021,0.001386175281368196,0.03681085052490234,0.13766659545898435,9.69157868270874
249538588303875,-0.003462375607341528,-0.0012096078135073185,0.0015755260828882456,0.053121349334716794,0.14634557647705076,9.693673609161376
249538598274875,-0.0032522522378712893,-0.002526274649426341,0.0006482133758254349,0.044891281127929686,0.1322796417236328,9.706392805480956
249538608245875,-0.003008306724950671,-0.0009653958841226995,0.0016538230702280998,0.037409400939941405,0.14499883804321287,9.705943892669676
249538618216875,-0.0023584954906255007,-0.0024058998096734285,0.0013885721564292908,0.04863222122192382,0.12375029830932617,9.704297879028319
249538628187875,-0.001722798915579915,-0.0027366643771529198,0.001868473831564188,0.03965396499633789,0.12300211029052734,9.689932669067382
249538638158875,-0.0022122878581285477,-0.0013899037148803473,0.0016367788193747401,0.028730419921875,0.1249473991394043,9.703100778198241
249538648129875,-0.0019270633347332478,-0.00224903947673738,0.0009017463307827711,0.040102877807617184,0.14185644836425781,9.718064538574218
249538658100875,-0.0006934871198609471,-0.0027334685437381268,0.0008167914929799736,0.040402153015136714,0.1352723937988281,9.70968483276367
249538668071875,-0.0026820695493370295,-0.0008791094878688455,0.0012695288751274347,0.047884033203124995,0.13811550827026367,9.703848966217041
249538678042875,-0.004258394706994295,-0.002511094557121396,-0.0006857639527879655,0.05416881256103515,0.131531453704834,9.711929396820068
249538688013875,-0.003787015099078417,-0.0014002900570631027,0.0019473034190014005,0.04803367080688476,0.12315174789428711,9.69756418685913
249538697984875,-0.0033159018494188786,-0.0017944378778338432,0.00018082863243762404,0.03950432739257812,0.1318307289123535,9.711031571197509
249538707955875,-0.0032314795535057783,-0.0024586303625255823,0.0017310547409579158,0.035464112091064454,0.12943652725219726,9.687388829803465
249538717926875,-0.0024117587599903345,-0.0017915084026753902,0.0013044163351878524,0.04713584518432617,0.12599486236572266,9.692027595520019
249538727898875,-0.0015395734226331115,-0.0006327670416794717,0.0006793724023737013,0.040402153015136714,0.12913725204467771,9.697264911651612
249538737869875,-0.0023968450259417295,-0.001740642124786973,0.0014407701091840863,0.04997895965576172,0.12659341278076172,9.701005851745604
249538747840875,-0.0020154803059995174,-0.0023060310631990433,-0.001121989800594747,0.04399345550537109,0.12719196319580078,9.709834470367431
249538757811875,-0.0017955031944438815,-0.0030362699180841446,-2.7696874894900247e-05,0.037409400939941405,0.1388636962890625,9.700856214141846
249538767782875,-0.002234658459201455,-0.0005456816870719194,0.0019323896849527955,0.037110125732421874,0.13871405868530273,9.708338094329834
249538777753875,-0.0019326560432091355,-0.0022455775178968906,0.0025153555907309055,0.03396773605346679,0.13168109130859373,9.703100778198241
249538787724875,-0.0016282566357403994,-0.0015342470724135637,0.0013353090034797788,0.03696048812866211,0.14784195251464843,9.707889181518555
249538797695875,-0.0024881914723664522,-0.002651176881045103,0.0010317085543647408,0.044891281127929686,0.13302782974243163,9.704896429443359
249538807666875,-0.0021611552219837904,-0.000922519015148282,0.0019712718203663826,0.029478607940673827,0.1261444999694824,9.703400053405762
249538817637875,-0.0028213527984917164,-0.0017952368361875415,0.0017931063193827868,0.038756139373779294,0.12255319747924803,9.711779759216308
249538827608875,-0.00290417717769742,-0.00219524372369051,0.0017065536230802536,0.03142389678955078,0.1274912384033203,9.699359838104247
249538837579875,-0.0020090886391699314,-0.0012665993999689817,0.0019182749092578888,0.0378583137512207,0.13287819213867186,9.694421797180174
249538847550875,-0.0023614249657839537,-0.0018975022248923779,0.002965962514281273,0.024690204620361325,0.13123217849731444,9.708787007141114
249538857521875,-0.0010250506456941366,-0.0016450346447527409,0.0007307713967747986,0.03531447448730469,0.12779051361083985,9.701005851745604
249538867493875,-0.0032623722217977047,-0.0027001791168004274,0.0016194682102650404,0.04115034103393554,0.12659341278076172,9.693374333953857
249538877464875,-0.002951581496745348,-0.0015688681742176414,0.0011819108622148633,0.04414309310913086,0.13347674255371092,9.694122521972655
249538887435875,-0.001490304945036769,-0.0010812433902174234,0.0005491438205353916,0.03561374969482422,0.1183633445739746,9.69112976989746
249538897406875,-0.0015374429058283567,-0.002365685999393463,-0.00033662354690022767,0.037110125732421874,0.13766659545898435,9.696067810821532
249538907377875,-0.00321816373616457,-0.0008250473183579743,0.0007933556917123497,0.024390929412841794,0.1352723937988281,9.700407301330566
249538917348875,-0.0021321268286556005,-0.001487641828134656,0.0008210525847971439,0.04548983154296875,0.13168109130859373,9.705644617462157
249538927319875,-0.001725462032482028,-0.0015456987312063575,0.0018924422329291701,0.048183308410644526,0.13003507766723632,9.703100778198241
249538937290875,-0.0027116306591778994,-0.0018066884949803352,0.0017563547007739544,0.047884033203124995,0.13482348098754882,9.702202952575684
249538947261875,-0.001788312685675919,-0.00040240364614874125,0.00024288028362207115,0.0469862075805664,0.13213000411987305,9.696067810821532
249538957232875,-0.0018572885310277343,-0.0021262678783386946,0.0012511530658230186,0.05297171173095703,0.12943652725219726,9.692177233123779
249538967203875,-0.0027382622938603163,-0.00045087316539138556,6.125270738266408e-05,0.04863222122192382,0.13302782974243163,9.699060562896728
249538977174875,-0.0018221348291262984,-0.0016109461430460215,-0.000598145998083055,0.042945992279052735,0.1384147834777832,9.692326870727538
249538987146875,-0.002737463219091296,-0.0015606123488396406,0.0018953717080876231,0.0526724365234375,0.13587094421386717,9.693374333953857
249538997117875,-0.003004844533279538,-0.0006285060080699623,0.001044758129864931,0.04563946914672851,0.1352723937988281,9.689334118652344
249539007088875,-0.0041460092179477215,-0.0025545042008161545,0.0010098706698045135,0.0430956298828125,0.1331774673461914,9.701903677368163
249539017059875,-0.001698830397799611,-0.0018311894964426756,0.0017134778900071979,0.03920505218505859,0.13422493057250975,9.701604402160644
249539027030875,-0.0010756507981568575,-0.0023411849979311228,0.0010255833622068167,0.031124621582031248,0.1331774673461914,9.698611650085448
249539037001875,-0.0036703685764223337,-0.0020072245970368385,0.0005193164106458426,0.04444236831665039,0.13602058181762694,9.700706576538085
249539046972875,-0.001966478070244193,-0.00213665422052145,0.00013076121103949845,0.048183308410644526,0.1288379768371582,9.713425772857665
249539056943875,-0.0046970173716545105,-0.002793655963614583,0.0036850159522145987,0.03651157531738281,0.13826514587402344,9.714323598480224
249539066914875,-0.0022090920247137547,-0.000999484327621758,0.0014671353856101632,0.047285482788085934,0.12375029830932617,9.69831237487793
249539076885875,-0.0031015174463391304,-0.0018719359068199992,0.0006154565489850938,0.04773439559936523,0.12764087600708007,9.692626145935058
249539086856875,-0.0026700852904468775,-0.002407231368124485,0.0015936355339363217,0.0526724365234375,0.1444002876281738,9.695319622802733
249539096827875,-0.001868473831564188,-0.002282062778249383,0.0036631780676543713,0.035464112091064454,0.1283890640258789,9.696815998840332
249539106799875,-0.0018306568963453174,-0.0037579864729195833,0.0012359730899333954,0.0330699104309082,0.13123217849731444,9.71716671295166
249539116770875,-0.0011049455497413874,-0.0007667240570299327,0.0007073355955071747,0.030526071166992186,0.12060790863037109,9.709235919952391
249539126741875,-0.0020295949652791023,-0.0014940333785489202,0.0014825817197561264,0.037409400939941405,0.1370680450439453,9.69157868270874
249539136712875,-0.0030093719251453876,-0.0026027073618024588,1.1185276889591478e-05,0.05027823486328125,0.13811550827026367,9.71073229598999
249539146683875,-0.003448260948061943,-0.002240783767774701,-0.0005667206714861095,0.03486556167602539,0.13856442108154296,9.707140993499756
249539156654875,-0.0019981698133051395,-0.0007475492893718183,0.0010130665032193065,0.03486556167602539,0.13991115951538086,9.698611650085448
249539166625875,-0.001829591696150601,-0.0024567660875618458,0.0014679343439638615,0.04279635467529297,0.12285247268676758,9.699060562896728
249539176596875,-0.0030602384358644485,-0.0025829998776316643,0.001609081868082285,0.04339490509033203,0.12255319747924803,9.701005851745604
249539186567875,-0.0024714134633541107,-0.0016823188634589314,0.0010751180816441774,0.038756139373779294,0.1396118843078613,9.699210200500488
249539196538875,-0.00347435986623168,-0.002522812457755208,0.001261805766262114,0.03920505218505859,0.13871405868530273,9.692925421142577
249539206510875,-0.002625077962875366,-0.0017680726014077663,0.0020634171087294817,0.04384381790161133,0.12554594955444334,9.688137017822266
249539216481875,-0.0038663772866129875,-0.0026160231791436672,0.0013076120521873236,0.03621230010986328,0.127042325592041,9.698162737274169
249539226452875,-0.0020865867845714092,-0.0034013893455266953,0.0010149306617677212,0.03815758895874023,0.13736732025146484,9.710881933593749
249539236423875,-0.0041127195581793785,-0.002055161399766803,0.0023393207229673862,0.04504091873168945,0.13587094421386717,9.69771382446289
249539246394875,-0.0028724854346364737,-0.0008620652370154858,0.0011345066595822573,0.03845686416625976,0.12659341278076172,9.69127940750122
249539256365875,-0.0024775387719273567,-0.00330231967382133,0.003979029133915901,0.03456628646850586,0.13138181610107422,9.700407301330566
249539266337250,-0.0035049861762672663,-0.0016322514275088906,0.0003920173039659858,0.03755903854370117,0.12764087600708007,9.694272159576416
249539276308250,-0.0018040252616629004,-0.001722532557323575,0.00024580975878052413,0.050128597259521485,0.13033435287475587,9.689034843444823
249539286279250,-0.0015893745003268123,-0.0017587515758350492,0.001189900329336524,0.03995324020385742,0.13676876983642577,9.69786346206665
249539296250250,-0.0041089910082519054,-0.0030605047941207886,0.0027233485598117113,0.051774610900878905,0.1470937644958496,9.708936644744872
249539306221250,-0.0023987090680748224,-0.0019054916920140386,0.001418932224623859,0.0526724365234375,0.12330138549804687,9.712079034423828
249539316193250,-0.0022599585354328156,-0.002740126335993409,0.0011584750609472394,0.04519055633544922,0.12644377517700195,9.709385557556152
249539326164250,-0.00370179396122694,-0.0007195860962383449,0.0018647453980520368,0.04474164352416992,0.14170681076049804,9.702651865386962
249539336135250,-0.0041183121502399445,-0.0025782061275094748,0.00031558459158986807,0.023642741394042967,0.13901333389282225,9.694272159576416
249539346106250,-0.002785400254651904,-0.002782204421237111,0.001612277701497078,0.04414309310913086,0.12734160079956053,9.686191728973387
249539356077250,-0.003251453395932913,-0.0009896307019516826,0.00033582461765035987,0.03725976333618164,0.12764087600708007,9.694122521972655
249539366048250,-0.001178448786959052,-0.002171008847653866,0.0013254552613943815,0.0383072265625,0.1279401512145996,9.700556938934326
249539376019250,-0.0035659726709127426,-0.0004348942020442337,0.0012812467757612467,0.02798223190307617,0.14170681076049804,9.705195704650878
249539385990250,-0.0028687571175396442,-0.0025949841365218163,-0.0001131843455368653,0.03800795135498047,0.1240495735168457,9.703400053405762
249539395961250,-0.001874332781881094,-0.0024732777383178473,0.00036192359402775764,0.0430956298828125,0.14200608596801756,9.698761287689209
249539405933250,-0.0028248149901628494,-0.0021949773654341698,0.00195156445261091,0.042048166656494135,0.14080898513793944,9.715969612121581
249539415904250,-0.0015638081822544336,-0.002823217073455453,0.0014623417519032955,0.03621230010986328,0.14185644836425781,9.708487731933593
249539425875250,-0.00239205127581954,-0.0023933828342705965,0.0022034994326531887,0.04085106582641601,0.14110826034545898,9.708487731933593
249539435846250,-0.0028932581190019846,-0.003372893435880542,0.0023726101499050856,0.03127425918579101,0.131531453704834,9.712079034423828
249539445817250,-0.002722017001360655,-0.002910036128014326,0.0011877698125317693,0.042048166656494135,0.12165537185668944,9.709385557556152
249539455788250,-0.0018807243322953582,-0.0019377160351723433,0.002472745021805167,0.043245267486572266,0.11552023010253906,9.702502227783203
249539465759250,-0.0022181468084454536,-0.0008490157779306173,0.0016490293201059103,0.05357026214599609,0.13587094421386717,9.706841718292235
249539475730250,-0.0036637107841670513,-0.0014357101172208786,0.0019257317762821913,0.050128597259521485,0.1406593475341797,9.713276135253906
249539485701250,-0.0028511802665889263,-0.0014895059866830707,0.0023156185634434223,0.05416881256103515,0.1249473991394043,9.70414824142456
249539495673250,-0.003287938656285405,-0.0016929714474827051,0.0012306467397138476,0.042646717071533204,0.14050970993041992,9.70369932861328
249539505644250,-0.0016964336391538382,-0.0012724583502858877,0.001990180229768157,0.04578910675048828,0.12943652725219726,9.710433020782471
249539515615250,-0.0024229439441114664,-0.0016162724932655692,0.0006468818173743784,0.03681085052490234,0.13198036651611328,9.702352590179443
249539525586250,-0.003102049930021167,-0.00316037330776453,0.0013518205378204584,0.05117606048583984,0.1379658706665039,9.695020347595214
249539535557250,-0.002459961920976639,-0.0026205505710095167,0.0013257216196507215,0.04115034103393554,0.1222539222717285,9.701903677368163
249539545528250,-0.0022098910994827747,-0.0019177423091605306,5.512743518920615e-05,0.04878185882568359,0.12808978881835936,9.69068085708618
249539555499250,-0.003837615018710494,-0.0012767193838953972,0.0002466087171342224,0.04444236831665039,0.13377601776123046,9.693523971557617
249539565470250,-0.0032810145057737827,-0.0013960290234535933,0.0005627259379252791,0.04339490509033203,0.12988544006347655,9.700556938934326
249539575441250,-0.0021968416403979063,-0.00221947836689651,0.001764077926054597,0.04055179061889648,0.1345242057800293,9.692925421142577
249539585413250,-0.002109223511070013,-0.0013600763631984591,0.002531600883230567,0.05401917495727539,0.12868833923339842,9.715670336914062
249539595384250,-0.002582467393949628,-0.0017678063595667481,0.0005568669876083732,0.04085106582641601,0.12943652725219726,9.692925421142577
249539605355250,-0.001374457380734384,-0.001748897833749652,0.001005343277938664,0.035763387298583985,0.1331774673461914,9.702053314971923
249539615326250,-0.004147606901824474,-0.000811997801065445,0.0017185378819704056,0.05102642288208008,0.1279401512145996,9.701754039764404
249539625297250,-0.002531867241486907,-0.0005451490869745612,0.00011664645717246458,0.03651157531738281,0.13631985702514648,9.712527947235106
249539635268250,-0.0023989754263311625,-0.002644518855959177,0.0010665960144251585,0.04668693237304687,0.13078326568603516,9.696067810821532
249539645239250,-0.002861566608771682,-0.002035187790170312,0.00017443705291952938,0.04534019393920898,0.13332710494995118,9.715520699310302
249539655210250,-0.003500725142657757,-0.0012916331179440022,0.0015331818722188473,0.02558803024291992,0.13631985702514648,9.708038819122313
249539665182250,-0.001948368619196117,0.0001978728687390685,9.906959166983142e-05,0.04279635467529297,0.13063362808227538,9.721655841064452
249539675153250,-0.002025333931669593,-0.001961151836439967,0.0009624664089642465,0.042945992279052735,0.1336263801574707,9.699210200500488
249539685124250,-0.0030897995457053185,-0.002043709857389331,0.0021233384031802416,0.04129997863769531,0.14918869094848633,9.698761287689209
249539695095250,-0.0035659726709127426,-0.0016085492679849267,0.0012301141396164894,0.03920505218505859,0.14544775085449219,9.695020347595214
249539705066250,-0.002210956299677491,-0.003096990054473281,0.00010626012954162434,0.03681085052490234,0.12449848632812499,9.695618898010252
249539715037250,-0.003299656556919217,-0.001751827308908105,0.0008950884221121669,0.04519055633544922,0.12479776153564452,9.708487731933593
249539725008250,-0.0025449167005717754,-0.0024074974935501814,0.001927595934830606,0.047285482788085934,0.12898761444091797,9.711031571197509
249539734979250,-0.0013227921444922686,-0.0019683423452079296,0.0019030949333682656,0.03980360260009765,0.1388636962890625,9.69846201248169
249539744951250,-0.003787281457334757,-0.002067412016913295,0.0004213120846543461,0.051475335693359374,0.13108254089355467,9.70504606704712
249539754922250,-0.00264798104763031,-0.0014852449530735612,-4.900216299574822e-05,0.028431144714355466,0.1414075355529785,9.706392805480956
249539764893250,-0.0012844426091760397,-0.00213612150400877,0.002153431996703148,0.04144961624145507,0.1388636962890625,9.718962364196777
249539774864250,-0.0014146711910143495,-0.0017627463676035404,0.0010607370641082525,0.038756139373779294,0.12913725204467771,9.712976860046385
249539784835250,-0.001671932521276176,-0.002073537092655897,0.0003099919413216412,0.048931496429443354,0.12779051361083985,9.702502227783203
249539794806250,-0.0015448997728526592,-0.0011163970921188593,0.002305764937773347,0.03980360260009765,0.14200608596801756,9.705195704650878
249539804777250,-0.001990979304537177,-0.0017829863354563713,0.002810966456308961,0.03950432739257812,0.13257891693115234,9.696815998840332
249539814748250,-0.0026194851379841566,-0.0015494271647185087,0.001776328426785767,0.042945992279052735,0.14380173721313474,9.693972884368895
249539824720250,-0.0018072210950776935,-0.001621332485228777,0.0012199940392747521,0.03621230010986328,0.14155717315673827,9.707589906311034
249539834691250,-0.0026176210958510637,-0.0010109359864145517,0.0018277274211868644,0.03396773605346679,0.13901333389282225,9.720009827423095
249539844662250,-0.0018706043483689427,-0.0008109325426630676,0.001499625970609486,0.03890577697753906,0.1388636962890625,9.703848966217041
249539854633250,-0.0024402544368058443,-0.002094576135277748,0.001568069215863943,0.03232172241210937,0.13482348098754882,9.701155489349365
249539864604250,-0.0007062703371047974,-0.0005637911963276565,0.0007315703551284969,0.04279635467529297,0.12779051361083985,9.709385557556152
249539874575250,-0.0024780714884400368,-0.003287672298029065,0.0009619337506592274,0.0383072265625,0.12644377517700195,9.69801309967041
249539884546250,-0.0036629117093980312,-0.001740375766530633,0.0018644790397956967,0.03681085052490234,0.12943652725219726,9.711630121612549
249539894518250,-0.0033803503029048443,-0.0017438378417864442,0.0007131945458240807,0.042945992279052735,0.1336263801574707,9.705644617462157
249539904489250,-0.0030072415247559547,-0.0018735338235273957,0.00088949577184394,0.036062662506103516,0.1406593475341797,9.69112976989746
249539914460250,-0.0027510453946888447,-0.0017749968683347106,0.0018383801216259599,0.04444236831665039,0.12973580245971678,9.693224696350097
249539924431250,-0.0014138722326606512,-0.0025545042008161545,0.0014114753575995564,0.04399345550537109,0.13377601776123046,9.70414824142456
249539934402250,-0.0049678608775138855,-0.0020903151016682386,0.001939580193720758,0.04863222122192382,0.143652099609375,9.705494979858399
249539944373250,-0.00301736150868237,-0.0013709953054785728,0.0005193164106458426,0.040102877807617184,0.12779051361083985,9.69756418685913
249539954344250,-0.0024772724136710167,-0.002270611235871911,0.002516687149181962,0.05327098693847656,0.13257891693115234,9.714323598480224
249539964316250,-0.0032711606472730637,-0.0019089538836851716,0.0019403791520744562,0.040402153015136714,0.12599486236572266,9.704746791839598
249539974287250,-0.00301682879216969,-0.0009781790431588888,0.0006375607335940003,0.050128597259521485,0.13542203140258788,9.687987380218505
249539984258250,-0.003153715282678604,-0.001023186487145722,0.0008269115351140499,0.04519055633544922,0.12389993591308593,9.70459715423584
249539994229250,-0.002942526713013649,-0.000624777574557811,0.003070624778047204,0.042945992279052735,0.13512275619506836,9.700407301330566
249540004200250,-0.002633866388350725,-0.001496430253610015,0.0013598100049421191,0.046537294769287106,0.12913725204467771,9.699210200500488
249540014171250,-0.0016165387351065874,-0.0025537051260471344,0.001511343871243298,0.04369418029785156,0.1361702194213867,9.693523971557617
249540024142250,-0.0023760723415762186,4.420847471919842e-05,0.002130795270204544,0.03666121292114258,0.13766659545898435,9.711330846405028
249540034114250,-0.002814695006236434,-0.0021885856986045837,0.002098038326948881,0.047884033203124995,0.13302782974243163,9.703400053405762
249540044085250,-0.001752093667164445,-0.002017078222706914,0.0018080200534313917,0.047285482788085934,0.13736732025146484,9.692326870727538
249540054056250,-0.0018903117161244154,-0.001910019083879888,0.0015097459545359015,0.04339490509033203,0.13302782974243163,9.693823246765136
249540064027250,-0.0013044163351878524,-0.0023156185634434223,0.002383262850344181,0.03800795135498047,0.136619132232666,9.708188456726074
249540073998250,-0.0008135957177728415,-0.0016330503858625889,0.002820287598297,0.03366846084594726,0.1283890640258789,9.695469260406494
249540083969250,-0.0015646071406081319,-0.002927879337221384,0.001184307737275958,0.04578910675048828,0.1261444999694824,9.700407301330566
249540093940250,-0.0033012544736266136,-0.002377403900027275,0.0007254450465552509,0.053420624542236325,0.13347674255371092,9.70444751663208
249540103912250,-0.002834135899320245,-0.0002996056282427162,0.00112438655924052,0.04055179061889648,0.1361702194213867,9.688735568237304
249540113883250,-0.0027830032631754875,-0.002222407842054963,0.001216531964018941,0.0378583137512207,0.12659341278076172,9.699210200500488
249540123854250,-0.0029499835800379515,-0.0011763182701542974,0.0019209380261600018,0.03890577697753906,0.12090718383789062,9.71671780014038
249540133825250,-0.0024668860714882612,-0.0015078817959874868,0.0002311623829882592,0.03232172241210937,0.136619132232666,9.714173960876463
249540143796250,-0.0038221688009798527,-0.0016402408946305513,0.0010138654615730047,0.03800795135498047,0.1336263801574707,9.700556938934326
249540153767250,-0.0023129554465413094,-0.0022778017446398735,0.00020186760229989886,0.044292730712890624,0.131531453704834,9.711779759216308
249540163739250,-0.0033603766933083534,3.408846168895252e-05,0.0009438242996111512,0.03815758895874023,0.13572130661010742,9.686640641784667
249540173710250,-0.003151318524032831,-0.002603506203740835,0.001463939668610692,0.032172084808349606,0.1409586227416992,9.708487731933593
249540183681250,-0.001981924520805478,-0.0021971079986542463,0.0010839065071195364,0.047285482788085934,0.13242927932739257,9.695618898010252
249540193652250,-0.0010527475969865918,-0.0019342538435012102,0.0018042916199192405,0.039354689788818356,0.131531453704834,9.705345342254638
249540203623250,-0.001210939371958375,-0.0022280006669461727,0.00018375810759607702,0.04159925384521484,0.13123217849731444,9.708487731933593
249540213594250,-0.003236006945371628,-0.0030386666767299175,-0.00025220136740244925,0.04279635467529297,0.14036007232666015,9.704746791839598
249540223565250,-0.0019358517602086067,-0.000618918624240905,0.0014713965356349945,0.036361937713623046,0.1396118843078613,9.700706576538085
249540233537250,-0.003168096300214529,-0.0028879318851977587,0.0019126823171973228,0.04444236831665039,0.14903905334472656,9.703848966217041
249540243508250,-0.002557699801400304,-0.003433879930526018,0.0021286646369844675,0.040102877807617184,0.12719196319580078,9.701754039764404
249540253479250,-0.0021851237397640944,-0.0020413128659129143,0.0015563513152301311,0.04025251541137695,0.1423053611755371,9.698761287689209
249540263450000,-0.002567553659901023,-0.0004884237423539162,0.0009720537927933037,0.04219780426025391,0.13392565536499024,9.685892453765868
249540273421000,-0.004649879410862923,-0.002834668615832925,0.0006444850005209446,0.048183308410644526,0.12659341278076172,9.687538467407226
249540283392000,-0.0034117756877094507,-0.001169394003227353,0.0021377194207161665,0.03815758895874023,0.12524667434692383,9.69756418685913
249540293364000,-0.0028812738601118326,-0.0029020465444773436,0.002120941411703825,0.0526724365234375,0.1292868896484375,9.703250415802001
249540303335000,-0.0025150892324745655,-0.002290318487212062,0.0006609965930692852,0.04848258361816406,0.13602058181762694,9.699359838104247
249540313306000,-0.0025385250337421894,-0.0010833739070221782,2.5566347176209092e-05,0.03860650177001953,0.13078326568603516,9.71013374557495
249540323277000,-0.003602990647777915,-0.001505484920926392,0.000984570593573153,0.04384381790161133,0.1352723937988281,9.69756418685913
249540333248000,-0.003194727934896946,-0.0017443705582991242,-0.0005752427969127893,0.04384381790161133,0.13003507766723632,9.702053314971923
249540343219000,-0.0032804817892611027,-0.0008514125947840512,0.0013323795283213258,0.03127425918579101,0.12554594955444334,9.696067810821532
249540353191000,-0.003207511268556118,-0.0024586303625255823,0.00025300029665231705,0.05087678527832031,0.12868833923339842,9.699359838104247
249540363162000,-0.0027590349782258272,-0.0023430490400642157,0.000886566296685487,0.03486556167602539,0.14170681076049804,9.69696563644409
249540373133000,-0.0024351945612579584,-0.0013526194961741567,0.0009827064350247383,0.038756139373779294,0.12988544006347655,9.684246440124511
249540383104000,-0.001038366463035345,-0.00028336033574305475,0.001589108258485794,0.03067570877075195,0.1274912384033203,9.700706576538085
249540393075000,-0.003924167715013027,-0.0018543590558692813,0.0015219965716823936,0.04279635467529297,0.1388636962890625,9.699958388519287
249540403046000,-0.003025617217645049,-0.0011315771844238043,0.0008202536264434457,0.0430956298828125,0.12973580245971678,9.692775783538817
249540413018000,-0.0016069513512775302,-0.0006886934279464185,0.0019451729021966457,0.031124621582031248,0.11641805572509765,9.702502227783203
249540422989000,-0.0018996327416971326,-0.0020010992884635925,0.000580036488827318,0.042945992279052735,0.12060790863037109,9.692775783538817
249540432960000,-0.003555319970473647,-0.0021054951939731836,0.0016503608785569668,0.03995324020385742,0.13377601776123046,9.708038819122313
249540442931000,-0.003424292430281639,-0.0026320021133869886,-0.000483363721286878,0.04219780426025391,0.13332710494995118,9.701604402160644
249540452902000,-0.002241050126031041,-0.002755839144811034,0.0019443739438429475,0.040102877807617184,0.1452981132507324,9.707589906311034
249540462873000,-0.0011022823164239526,-0.002409361768513918,0.001255680457688868,0.04474164352416992,0.13347674255371092,9.709984107971191
249540472845000,-0.0033537186682224274,-0.0021821942646056414,0.0012961605098098516,0.036062662506103516,0.1318307289123535,9.694421797180174
249540482816000,-0.0021699436474591494,-0.0029236183036118746,0.001907089608721435,0.041000703430175776,0.13901333389282225,9.689483756256102
249540492787000,-0.0010037453612312675,-0.0024466461036354303,0.0011757856700569391,0.039055414581298825,0.14170681076049804,9.707140993499756
249540502758000,-0.0034019220620393753,-0.002945189829915762,0.0014761901693418622,0.0474351203918457,0.14604630126953125,9.695768535614013
249540512729000,-0.0014285196084529161,-0.0032466596458107233,0.0008612662786617875,0.03920505218505859,0.13856442108154296,9.699958388519287
249540522700000,-0.003192064817994833,-0.0013171994360163808,0.0015656723408028483,0.04474164352416992,0.1240495735168457,9.69801309967041
249540532672000,-0.0027614317368716,-0.001272990950383246,0.0030988543294370174,0.03456628646850586,0.12180500946044921,9.699060562896728
249540542643000,-0.0029294772539287806,-0.0019180085510015488,0.0015949672088027,0.04339490509033203,0.12449848632812499,9.700407301330566
249540552614000,-0.0032887374982237816,-0.0019520970527082682,0.0032415995374321938,0.041000703430175776,0.13542203140258788,9.699210200500488
249540562585000,-0.0025989788118749857,-0.002532133599743247,0.0018383801216259599,0.04219780426025391,0.12779051361083985,9.708338094329834
249540572556000,-0.00395639194175601,-0.0013933659065514803,-0.0001680454588495195,0.04997895965576172,0.12524667434692383,9.694571434783935
249540582527000,-0.0018335863715037704,0.00035260253935121,0.00336144189350307,0.03920505218505859,0.13033435287475587,9.70369932861328
249540592499000,-0.0016215987270697951,-0.001862614881247282,0.0015670040156692266,0.04967968444824218,0.12943652725219726,9.72390040512085
249540602470000,-0.0032890038564801216,-0.002243713242933154,0.0013009541435167193,0.040402153015136714,0.13407529296874998,9.712827222442627
249540612441000,-0.003978230059146881,-0.001678057829849422,0.00035499935620464385,0.05416881256103515,0.13691840744018555,9.701754039764404
249540622412000,-0.0028128307312726974,-0.0018855180824175477,0.0013675332302227616,0.030825346374511717,0.12434884872436523,9.696367086029053
249540632383000,-0.0025031049735844135,-0.002784601179882884,0.0012796488590538502,0.044891281127929686,0.13138181610107422,9.695469260406494
249540642355000,-0.0028450549580156803,-0.0016327840276062489,5.1399008953012526e-05,0.04159925384521484,0.13572130661010742,9.709385557556152
249540652326000,-0.0046152579598128796,-0.002606169320642948,0.0003323625132907182,0.042945992279052735,0.13916297149658202,9.694870709991454
249540662297000,-0.004222708288580179,-0.0019859191961586475,0.00015872440417297184,0.042048166656494135,0.1274912384033203,9.702651865386962
249540672268000,-0.0029971215408295393,-0.001534779672510922,9.853696246864274e-05,0.03516483688354492,0.12958616485595703,9.71073229598999
249540682239000,-0.0035633095540106297,-0.0031185615807771683,0.00276169809512794,0.04384381790161133,0.1274912384033203,9.705794255065918
249540692210000,-0.0024679512716829777,-0.0025238776579499245,0.0009576727170497179,0.044592005920410155,0.1409586227416992,9.689932669067382
249540702182000,-0.0026764769572764635,-0.0016056197928264737,-0.0004791026876773685,0.04414309310913086,0.1292868896484375,9.69756418685913
249540712153000,-0.002641855739057064,-0.0029140308033674955,0.0019153454340994358,0.03486556167602539,0.1222539222717285,9.701604402160644
249540722124000,-0.0043715788051486015,-0.0016921724891290069,0.00015419702685903758,0.04504091873168945,0.13976152191162108,9.7039986038208
249540732095000,-0.0024077638518065214,-0.0020213392563164234,0.0007893609581515193,0.056114101409912104,0.136619132232666,9.700556938934326
249540742066000,-0.0026325348298996687,-0.0013230583863332868,0.0009512811084277928,0.03755903854370117,0.11686696853637694,9.69786346206665
249540752038000,-0.004141215234994888,-0.0024373249616473913,-0.00024580975878052413,0.038756139373779294,0.13587094421386717,9.718962364196777
249540762009000,-0.002537459833547473,-0.0005243764026090503,0.0019430422689765692,0.043245267486572266,0.13033435287475587,9.710881933593749
249540771980000,-0.002423742786049843,-0.0018551580142229795,0.0014234596164897084,0.04638765716552734,0.1393126091003418,9.693224696350097
249540781951000,-0.0016644756542518735,-0.001728924224153161,0.0011254518758505583,0.04055179061889648,0.12973580245971678,9.697115274047851
249540791922000,-0.0021499700378626585,-0.0025888588279485703,0.0010570086305961013,0.03516483688354492,0.12165537185668944,9.71686743774414
249540801893000,-0.002665025182068348,-0.0008998821140266955,0.002046905690804124,0.033818098449707026,0.12853870162963865,9.709235919952391
249540811865000,-0.0006532734259963036,-0.001975799212232232,0.0008492820779792964,0.04159925384521484,0.13123217849731444,9.704746791839598
249540821836000,-0.0013235911028459668,-0.0012221246724948287,0.0028764803428202868,0.04144961624145507,0.11926117019653319,9.702801502990722
249540831807000,-0.002016811864450574,-0.0016620787791907787,0.0033425334841012955,0.04773439559936523,0.1261444999694824,9.699509475708007
249540841778000,-0.002177666872739792,-0.0038434739690274,0.0005478122038766742,0.04055179061889648,0.1288379768371582,9.694122521972655
249540851749000,-0.0027928571216762066,-0.0017201356822624803,0.002630137838423252,0.04219780426025391,0.136619132232666,9.703400053405762
249540861721000,-0.0024564997293055058,-0.0027055053506046534,0.0021827267482876778,0.03411737365722656,0.1345242057800293,9.701754039764404
249540871692000,-0.0015965650090947747,-0.0018634138396009803,0.002557699801400304,0.04189852905273437,0.1331774673461914,9.697115274047851
249540881663000,-0.0015699334908276796,-0.0017566210590302944,0.0011113371001556516,0.04683656997680664,0.13287819213867186,9.711330846405028
249540891634000,-0.002223206916823983,-0.00202320353128016,0.002311623888090253,0.0326209976196289,0.1375169578552246,9.699359838104247
249540901605000,-0.0007898935582488775,-0.0014740596525371075,0.0013275857781991363,0.038756139373779294,0.1318307289123535,9.687089554595946
249540911577000,-0.0033920682035386562,-0.0020184097811579704,8.495483780279756e-05,0.055365913391113276,0.13437456817626953,9.703400053405762
249540921548000,-0.004259726032614708,-0.001826395862735808,0.002426938619464636,0.04249707946777344,0.13916297149658202,9.712677584838866
249540931519000,-0.003686613868921995,-0.0009323726990260184,0.001734783174470067,0.04055179061889648,0.12779051361083985,9.705494979858399
249540941490000,-0.0027419906109571457,-0.0013451626291498542,0.0010466222884133458,0.03366846084594726,0.13138181610107422,9.701005851745604
249540951461000,-0.0012085424968972802,-0.0014205301413312554,0.0012040151050314307,0.04997895965576172,0.1375169578552246,9.702951140594482
249540961433000,-0.004281297791749239,-0.0024557008873671293,0.0015273229219019413,0.048183308410644526,0.12764087600708007,9.700257663726806
249540971404000,-0.0016335829859599471,-0.0015659386990591884,0.0005451490869745612,0.04025251541137695,0.12464812393188476,9.70444751663208
249540981375000,-0.0034727619495242834,-0.00213665422052145,0.0016769925132393837,0.032172084808349606,0.13198036651611328,9.690381581878661
249540991346000,-0.0036850159522145987,-0.0033955303952097893,0.00033688987605273724,0.04773439559936523,0.12449848632812499,9.704746791839598
249541001317000,-0.0029984530992805958,-0.001603222917765379,0.0009382316493429244,0.0383072265625,0.1327285545349121,9.709385557556152
249541011289000,-0.002983805723488331,-0.001258876291103661,0.0007102650706656277,0.028730419921875,0.13242927932739257,9.719710552215576
249541021260000,-0.001882854849100113,-0.0017251957906410098,0.0008551410282962024,0.0430956298828125,0.12255319747924803,9.696516723632811
249541031231000,-0.0033872744534164667,-0.002674346324056387,0.0014181332662701607,0.04085106582641601,0.12464812393188476,9.68499462814331
249541041202000,-0.0004772384709212929,-0.0016325177857652307,0.0012532835826277733,0.04249707946777344,0.127042325592041,9.697115274047851
249541051173000,-0.0026575683150440454,-0.002014148747548461,0.0018716695485636592,0.044292730712890624,0.12734160079956053,9.696666361236572
249541061145000,-0.0041247038170695305,-0.0019656792283058167,0.0014950985787436366,0.041000703430175776,0.13916297149658202,9.70444751663208
249541071116000,-0.002226402750238776,-0.001525991247035563,0.0007981493836268783,0.03696048812866211,0.1352723937988281,9.705794255065918
249541081087000,-0.0033427998423576355,-0.0011968245962634683,0.0009443568997085094,0.04085106582641601,0.13108254089355467,9.701754039764404
249541091058000,-0.0016607472207397223,-0.002226136391982436,0.0017534252256155014,0.04189852905273437,0.13691840744018555,9.705943892669676
249541101030000,-0.0027113643009215593,-0.003279150230810046,0.0007795072160661221,0.04908113403320312,0.13033435287475587,9.711630121612549
249541111001000,-0.0030008498579263687,-0.003867442486807704,0.001210673013702035,0.05057751007080078,0.13826514587402344,9.711031571197509
249541120972000,-0.0026378610637038946,-0.001059405505657196,5.1132694352418184e-05,0.05057751007080078,0.13781623306274413,9.695768535614013
249541130943000,-0.002572879893705249,-0.002359294332563877,0.0014692660188302398,0.04474164352416992,0.13901333389282225,9.69786346206665
249541140914000,4.6871635277057067e-05,-0.0006146575906313956,0.00042823629337362945,0.039354689788818356,0.12464812393188476,9.686341366577148
249541150886000,-0.004077565856277943,-0.0012242551892995834,0.0010543455136939883,0.03860650177001953,0.13287819213867186,9.71013374557495
249541160857000,-0.0023036343045532703,-0.0031649006996303797,0.0005193164106458426,0.03516483688354492,0.13646949462890623,9.69741454925537
249541170828000,-0.0022714100778102875,-0.0024176177103072405,0.0019049590919166803,0.03441664886474609,0.1427542739868164,9.697115274047851
249541180799000,-0.0019646140281111,-0.0016450346447527409,0.0013337110867723823,0.04025251541137695,0.1352723937988281,9.703100778198241
249541190770000,-0.0037140443455427885,-0.0015488944482058287,0.0012623383663594723,0.03860650177001953,0.1288379768371582,9.696217448425292
249541200742000,-0.002627741079777479,-0.00185036426410079,0.0018548916559666395,0.04189852905273437,0.12464812393188476,9.698611650085448
249541210713000,-0.0021526331547647715,-9.427589975530282e-05,0.001600293442606926,0.04144961624145507,0.136619132232666,9.714473236083984
249541220684000,-0.0018759306985884905,-0.0025297366082668304,-0.0007281082216650248,0.041748891448974604,0.13422493057250975,9.702053314971923
249541230655000,-0.0014112089993432164,-0.001770469476468861,0.00227806787006557,0.03815758895874023,0.1301847152709961,9.71073229598999
249541240626000,-0.0029606360476464033,-0.002258360618725419,0.00038935415796004236,0.0330699104309082,0.13242927932739257,9.703100778198241
249541250598000,-0.002538258908316493,-0.0033489251509308815,0.002121740486472845,0.05491700057983398,0.12449848632812499,9.712827222442627
249541260569000,-0.002630404196679592,-0.0012295814231038094,0.0018612833227962255,0.053719899749755856,0.14395137481689452,9.707889181518555
249541270539667,-0.0034261567052453756,-0.002251968951895833,0.0011486213188618422,0.027533319091796873,0.13482348098754882,9.700257663726806
249541280510667,-0.0033427998423576355,-0.0032629049383103848,0.0010902981739491224,0.0430956298828125,0.1318307289123535,9.705494979858399
249541290482667,-0.003430684097111225,-0.002510828198865056,0.0019028285751119256,0.046238019561767575,0.13572130661010742,9.693374333953857
249541300453667,-0.002633067313581705,-0.0020266654901206493,0.0014985607704147696,0.044292730712890624,0.13766659545898435,9.69786346206665
249541310424667,-0.0027475832030177116,-0.001711081014946103,0.0016133430181071162,0.037110125732421874,0.12659341278076172,9.697115274047851
249541320395667,-0.0041302964091300964,-0.0019467707024887204,0.0009358347742818296,0.040701428222656245,0.12419921112060546,9.715969612121581
249541330366667,-0.003162770066410303,-0.0009896307019516826,0.0006490123341791332,0.03067570877075195,0.12375029830932617,9.698761287689209
249541340338667,-0.0016492956783622503,-0.0014716627774760127,0.003020557342097163,0.032920272827148434,0.12868833923339842,9.69142904510498
249541350309667,-0.003087668912485242,-0.0019084211671724916,0.00041199102997779846,0.049230771636962885,0.13631985702514648,9.695918173217773
249541360280667,-0.00281975488178432,-0.0025997778866440058,0.0006362291751429439,0.039354689788818356,0.13213000411987305,9.705345342254638
249541370251667,-0.0029262814205139875,-0.0028796761762350798,0.0015475628897547722,0.05327098693847656,0.1318307289123535,9.690980132293701
249541380223667,-0.0015403723809868097,-0.0024506407789885998,-0.00021544973424170166,0.04144961624145507,0.11926117019653319,9.687089554595946
249541390194667,-0.001835716888308525,-0.0011808456620201468,-0.00025752768851816654,0.04129997863769531,0.1370680450439453,9.700407301330566
249541400165667,-0.002590723102912307,-0.003510579001158476,0.0008892294717952609,0.05282207412719726,0.127042325592041,9.702202952575684
249541410136667,-0.0019805929623544216,-0.002264219569042325,0.0004799016169272363,0.04578910675048828,0.13168109130859373,9.705943892669676
249541420107667,-0.0013752563390880823,-0.0017212009988725185,0.0006551376427523792,0.039354689788818356,0.1444002876281738,9.707889181518555
249541430079667,-0.004028830211609602,-0.0027563716284930706,0.001561677665449679,0.0469862075805664,0.12419921112060546,9.686640641784667
249541440050667,-0.0025963156949728727,-0.0020868529099971056,0.0006799050024710596,0.029328970336914062,0.12285247268676758,9.689633393859863
249541450021667,-0.0001853560097515583,-0.0023302659392356873,0.000294545607175678,0.03037643356323242,0.12779051361083985,9.699659113311768
249541459992667,-0.0035981968976557255,-0.002636795863509178,0.003364637726917863,0.02977788314819336,0.13826514587402344,9.694421797180174
249541469964667,-0.002407231368124485,-0.0018599516479298472,0.0010695254895836115,0.04563946914672851,0.1240495735168457,9.711330846405028
249541479935667,-0.0026764769572764635,-0.0008149272762238979,0.0005198490689508617,0.039354689788818356,0.1253963119506836,9.69741454925537
249541489906667,-0.003343332326039672,-0.0026730147656053305,0.0010290454374626279,0.04369418029785156,0.1396118843078613,9.71028338317871
249541499877667,-0.003460511565208435,-0.00253479671664536,0.0015707324491813779,0.04384381790161133,0.13242927932739257,9.69756418685913
249541509849667,-0.0021694109309464693,-0.002572613535448909,0.0012210593558847904,0.039354689788818356,0.13033435287475587,9.69756418685913
249541519820667,-0.0009467537747696042,-0.0004926847759634256,0.0019742012955248356,0.03456628646850586,0.11761515655517578,9.69801309967041
249541529791667,-0.0019632822368294,-0.0034117756877094507,0.001219461439177394,0.038756139373779294,0.10788871231079102,9.696067810821532
249541539762667,-0.0020775320008397102,-0.0022719427943229675,0.001044491771608591,0.033518823242187495,0.12644377517700195,9.69068085708618
249541549733667,-0.002572613535448909,-0.002719353651627898,0.0011528824688866735,0.0378583137512207,0.13168109130859373,9.704297879028319
249541559705667,-0.002344380598515272,-0.0013547500129789114,0.0008596684201620519,0.0565630142211914,0.1222539222717285,9.709984107971191
249541569676667,-0.0020985708106309175,-0.001600559800863266,0.0007962851668708026,0.04863222122192382,0.13003507766723632,9.702801502990722
249541579647667,-0.001406947965733707,-0.0007571366732008755,0.0015835155500099063,0.028730419921875,0.13347674255371092,9.701604402160644
249541589618667,-0.002430667169392109,-0.0016314524691551924,0.00043542683124542236,0.036361937713623046,0.1352723937988281,9.695918173217773
249541599590667,-0.0022021678742021322,-0.002284992253407836,0.001008805469609797,0.03651157531738281,0.136619132232666,9.71581997451782
249541609561667,-0.002721750643104315,-0.0031819448340684175,0.0017632789677008986,0.03681085052490234,0.1322796417236328,9.700556938934326
249541619532667,-0.002980876248329878,-0.0018469021888449788,0.0011771172285079956,0.028131869506835935,0.12913725204467771,9.680954412841796
249541629503667,-0.0024109596852213144,-0.0014927018200978637,-0.0012607404496520758,0.03247136001586914,0.12644377517700195,9.69786346206665
249541639475667,-0.0037326866295188665,-0.0006708502769470215,0.0017936390358954668,0.044592005920410155,0.13287819213867186,9.69831237487793
249541649446667,-0.004053064621984959,3.728425554072601e-06,0.0008615325787104666,0.038756139373779294,0.13003507766723632,9.699359838104247
249541659417667,-0.0037468012887984514,-0.0032176312524825335,0.000660463934764266,0.03815758895874023,0.131531453704834,9.708637369537353
249541669388667,-0.002528937766328454,-0.0013339773286134005,0.0007811051327735186,0.047285482788085934,0.13512275619506836,9.692925421142577
249541679360667,-0.0027976506389677525,-0.002351038623601198,0.0023877902422100306,0.0474351203918457,0.13168109130859373,9.699359838104247
249541689331667,-0.0035891421139240265,-0.0017238641157746315,0.0010703244479373097,0.03815758895874023,0.14080898513793944,9.70968483276367
249541699302667,-0.002095375210046768,-0.002520682057365775,0.0020506340079009533,0.04249707946777344,0.13063362808227538,9.712827222442627
