timestamp_ns,wx,wy,wz,ax,ay,az
248515547900125,-0.001972070662304759,-0.0021544971968978643,0.0007076018955558538,0.024390929412841794,0.16115969924926757,9.71581997451782
248515557869125,-0.0020754013676196337,-0.0012684636749327183,0.00024820660473778844,0.0330699104309082,0.15637129592895507,9.717465988159178
248515567839125,-0.003084473079070449,-0.0028937908355146646,0.0012753878254443407,0.02858078231811523,0.16609774017333984,9.727641345214844
248515577809125,-0.0037763623986393213,-0.0017528926255181432,0.0020357202738523483,0.0330699104309082,0.16475100173950194,9.719710552215576
248515587779125,-0.004136155359447002,-0.0017062872648239136,0.0030690268613398075,0.032920272827148434,0.15906477279663084,9.708637369537353
248515597748125,-0.003581951605156064,-0.000621848099399358,0.002204298507422209,0.03396773605346679,0.16699556579589842,9.70459715423584
248515607718125,-0.0034296188969165087,-0.0008815063047222793,0.0020634171087294817,0.03396773605346679,0.16684592819213867,9.724349317932129
248515617688125,-0.0038834214210510254,-0.0014988270122557878,-0.0005640574963763356,0.022445640563964843,0.17552490921020505,9.71641852493286
248515627657125,-0.004367051646113396,-0.003233343828469515,0.0005792375304736197,0.03426701126098632,0.15532383270263672,9.714173960876463
248515637627125,-0.002514290390536189,-0.0031039142049849033,0.0008050735923461616,0.03202244720458984,0.15442600708007811,9.70414824142456
248515647597125,-0.0031438616570085287,-0.0010370349045842886,0.0015925703337416053,0.027682956695556638,0.1657984649658203,9.712228672027587
248515657567125,-0.0036709012929350138,-0.0010436928132548928,0.0010484865633770823,0.034715924072265626,0.15876549758911132,9.71058265838623
248515667536125,-0.003546531544998288,-1.0652644050423987e-05,-0.0001496696495451033,0.029328970336914062,0.16385317611694336,9.718214176177979
248515677506125,-0.002597114769741893,-0.0035563854034990072,0.0010301107540726662,0.018854338073730468,0.16250643768310546,9.719710552215576
248515687476125,-0.003240001853555441,-0.0011520835105329752,0.0012620720081031322,0.022146365356445312,0.1680430290222168,9.717465988159178
248515697446125,-0.0032538501545786858,-0.0015334481140598655,0.003457315731793642,0.040402153015136714,0.1762730972290039,9.713575410461425
248515707415125,-0.004248807206749916,-0.0015283881220966578,0.001044225413352251,0.03037643356323242,0.16564882736206055,9.725396781158446
248515717385125,-0.003245328087359667,-0.001657018787227571,0.0012631373247131705,0.02902969512939453,0.165349552154541,9.725546418762207
248515727355125,-0.0036506610922515392,-0.0012381036067381501,0.0014929680619388819,0.048931496429443354,0.16415245132446288,9.700108026123047
248515737325125,-0.0031760858837515116,-0.0021574266720563173,0.0024016385432332754,0.04863222122192382,0.16564882736206055,9.711779759216308
248515747294125,-0.002298840554431081,-0.0020501012913882732,0.0029851372819393873,0.03067570877075195,0.16026187362670896,9.715071786499022
248515757264125,-0.0036171053070575,-0.00047404266661033034,0.0007344998302869499,0.030825346374511717,0.15367781906127928,9.712228672027587
248515767234125,-0.0029055087361484766,-0.0012596751330420375,0.0010985539993271232,0.01631049880981445,0.16864157943725586,9.707589906311034
248515777203125,-0.0027425233274698257,-0.002520415699109435,0.00020000340009573847,0.03172317199707031,0.1710357810974121,9.71686743774414
248515787173125,-0.0026072347536683083,-0.0012620720081031322,0.0013936321483924985,0.03127425918579101,0.16160861206054686,9.719860189819336
248515797143125,-0.002237587934359908,-0.001555818715132773,0.0011627360945567489,0.029927520751953124,0.16355390090942382,9.705494979858399
248515807113125,-0.0010159959783777595,-0.0011105381418019533,0.0009147958480753005,0.02289455337524414,0.15397709426879883,9.692775783538817
248515817082125,-0.0027614317368716,-0.0019198728259652853,-0.00032730249222368,0.031124621582031248,0.17058686828613281,9.720608377838134
248515827052125,-0.004639759194105864,-0.002621083054691553,0.000499875342939049,0.041000703430175776,0.16774375381469725,9.714473236083984
248515837022125,-0.0028003137558698654,-0.0017414409667253494,0.0016586167039349675,0.04548983154296875,0.1666962905883789,9.716119249725342
248515846991125,-0.0025928535033017397,-0.002397643867880106,0.0013382384786382318,0.04713584518432617,0.1710357810974121,9.721057290649414
248515856961125,-0.0027481159195303917,-0.0010037453612312675,0.0014333132421597838,0.03591302490234375,0.16430208892822265,9.706841718292235
248515866931125,-0.002067944500595331,-0.002386725042015314,0.0008908273885026574,0.03800795135498047,0.16849194183349608,9.69801309967041
248515876901125,-0.0038722362369298935,-0.0016421051695942879,0.0010785802733153105,0.03441664886474609,0.16819266662597654,9.709086282348633
248515886870125,-0.0036586506757885218,-0.0018045579781755805,0.0023465112317353487,0.027533319091796873,0.16160861206054686,9.71013374557495
248515896840125,-0.003451723139733076,-0.0016990967560559511,0.002537459833547473,0.040402153015136714,0.16953940505981444,9.701604402160644
248515906810125,-0.0024897893890738487,-0.000598145998083055,0.0028570392169058323,0.03725976333618164,0.1649006393432617,9.715071786499022
248515916780125,-0.0017587515758350492,-0.00034408041392453015,0.002445314545184374,0.029179332733154296,0.16909049224853515,9.717765263366699
248515926749125,-0.0033369408920407295,-0.004533232655376196,0.0016269250772893429,0.03666121292114258,0.16175824966430663,9.721655841064452
248515936719125,-0.002944923471659422,-0.0033630398102104664,0.0005454153870232403,0.029328970336914062,0.16280571289062498,9.718812726593017
248515946689125,-0.0031675638165324926,-0.0018745990237221122,0.0005914880894124508,0.026186580657958983,0.16654665298461913,9.709535195159912
248515956658125,-0.002008023438975215,-0.0019259981345385313,0.0009185242815874517,0.027084406280517576,0.1610100616455078,9.707739543914794
248515966628125,-0.002409894485026598,-0.0013606089632958174,0.0014956312952563167,0.03651157531738281,0.1671452033996582,9.716568162536621
248515976598125,-0.003936151973903179,-0.0010189254535362124,0.002266882685944438,0.0330699104309082,0.17357962036132812,9.715221424102783
248515986568125,-0.002532133599743247,-0.0013068130938336253,0.001683916780166328,0.04189852905273437,0.1696890426635742,9.728239895629882
248515996537125,-0.0011281149927526712,-0.0018045579781755805,0.0013169331941753626,0.029927520751953124,0.17732056045532227,9.7170170753479
248516006507125,-0.0036583843175321817,-0.002626675646752119,0.0027286747936159372,0.029927520751953124,0.1666962905883789,9.712079034423828
248516016477125,-0.0033065807074308395,-0.003531617810949683,0.0013353090034797788,0.02483984222412109,0.16909049224853515,9.719560914611815
248516026446125,-0.003094326937571168,-0.0028242822736501694,0.002737463219091296,0.026186580657958983,0.1680430290222168,9.70354969100952
248516036416125,-0.0035712989047169685,-0.001731587341055274,0.0019358517602086067,0.030974983978271482,0.155772745513916,9.706991355895996
248516046386125,-0.00455826660618186,-0.0008056062506511807,0.0011973571963608265,0.034715924072265626,0.15128361740112303,9.717615625762939
248516056356125,-0.0019068233668804169,-0.0022357236593961716,0.0022248048335313797,0.028431144714355466,0.17462708358764648,9.719860189819336
248516066325125,-0.0020301276817917824,-0.0022216090001165867,0.0019148128340020776,0.03202244720458984,0.16894085464477537,9.715221424102783
248516076295125,-0.002576608443632722,-0.002290052128955722,0.0009145294898189604,0.021697452545166016,0.16819266662597654,9.712527947235106
248516086265125,-0.0028328043408691883,-0.0014303837670013309,0.0011550129856914282,0.02558803024291992,0.16280571289062498,9.703400053405762
248516096234125,-0.002438922878354788,-0.0021694109309464693,0.0025241440162062645,0.037409400939941405,0.1518821678161621,9.705345342254638
248516106204125,-0.0022210762836039066,-0.0012988236267119646,0.003498062025755644,0.03456628646850586,0.15367781906127928,9.71716671295166
248516116174125,-0.0032077773939818144,-0.002371278591454029,0.0011092065833508968,0.03681085052490234,0.1571194839477539,9.710881933593749
248516126144125,-0.004072239622473717,-0.0026812704745680094,0.0024655545130372047,0.03366846084594726,0.1589151351928711,9.715221424102783
248516136113125,-0.003020290983840823,-0.0014751249691471457,0.0019001654582098126,0.029478607940673827,0.15741875915527342,9.702951140594482
248516146083125,-0.0017827199772000313,-0.003288205014541745,0.0013579458463937044,0.028131869506835935,0.16205752487182618,9.712228672027587
248516156053125,-0.002192580606788397,-0.0024881914723664522,0.002205097349360585,0.044891281127929686,0.1623568000793457,9.71013374557495
248516166023125,-0.003769171889871359,-0.0021883193403482437,0.0016128103015944362,0.04159925384521484,0.14918869094848633,9.712228672027587
248516175992125,-0.002133724745362997,-0.003379817819222808,0.0024554345291107893,0.04144961624145507,0.16026187362670896,9.713276135253906
248516185962125,-0.004195810295641422,-0.0015393070643767715,0.002694852650165558,0.04399345550537109,0.17163433151245117,9.727042794799804
248516195932125,-0.0021291973534971476,-0.002412024885416031,0.0011446266435086727,0.03247136001586914,0.165349552154541,9.696067810821532
248516205901125,-0.0018293253378942609,-0.0018588864477351308,0.0019169433508068323,0.028131869506835935,0.1571194839477539,9.7162688873291
248516215871125,-0.0032687638886272907,-0.0015355786308646202,0.0015675366157665849,0.037409400939941405,0.1596633232116699,9.718663088989258
248516225841125,-0.0034413367975503206,-0.0011339739430695772,0.0018977685831487179,0.03202244720458984,0.17043723068237304,9.703250415802001
248516235811125,-0.001845038030296564,-0.0024868599139153957,0.0007765777409076691,0.023343466186523436,0.16355390090942382,9.713425772857665
248516245780125,-0.002025067573413253,-0.002046639332547784,0.0016250609187409282,0.027533319091796873,0.1696890426635742,9.711779759216308
248516255750125,-0.0026668894570320845,-0.00044022052315995097,0.0025875272694975138,0.040701428222656245,0.1728314323425293,9.715221424102783
248516265720125,-0.0028248149901628494,-0.0021486382465809584,0.0034498588647693396,0.044891281127929686,0.16475100173950194,9.703400053405762
248516275689125,-0.0016287893522530794,-0.0015646071406081319,0.0046876962296664715,0.03486556167602539,0.17178396911621094,9.718812726593017
248516285659125,-0.0017502295086160302,-0.0006570018595084548,0.002005626680329442,0.02902969512939453,0.15876549758911132,9.72330185470581
248516295629125,-0.003907922655344009,-0.001680454588495195,0.0019172097090631723,0.029478607940673827,0.1728314323425293,9.709535195159912
248516305599000,-0.0017478326335549355,-0.0018048242200165987,0.0018437063554301858,0.024690204620361325,0.16699556579589842,9.713725048065186
248516315568000,-0.0020535634830594063,-0.0009161274065263569,0.0011994877131655812,0.0330699104309082,0.16430208892822265,9.709984107971191
248516325538000,-0.0035127094015479088,-0.001996039180085063,0.0010106696281582117,0.031124621582031248,0.16729484100341796,9.709385557556152
248516335508000,-0.0034647725988179445,-0.0021435783710330725,0.0016652746126055717,0.03202244720458984,0.16430208892822265,9.70968483276367
248516345477000,-0.0038658445701003075,-0.0013369068037718534,0.003037335118278861,0.032172084808349606,0.16355390090942382,9.706692080688477
248516355447000,-0.003237072378396988,-0.0023318638559430838,0.0027499801944941282,0.035464112091064454,0.14649521408081054,9.694870709991454
248516365417000,-0.0020413128659129143,-0.0020804614759981632,0.002260757377371192,0.03681085052490234,0.16041151123046873,9.704896429443359
248516375387000,-0.002028796123340726,-0.0009869674686342478,-1.0918960470007733e-05,0.03531447448730469,0.17133505630493162,9.719411277008057
248516385356000,-0.0033872744534164667,-5.965480886516161e-05,0.0018370485631749034,0.028730419921875,0.1693897674560547,9.711330846405028
248516395326000,-0.004740959499031305,-0.00293347192928195,0.0016069513512775302,0.04279635467529297,0.16924012985229492,9.712976860046385
248516405296000,-0.0021904499735683203,-0.0017393104499205947,0.0016753945965319872,0.029628245544433593,0.1580173095703125,9.698910925292969
248516415265000,-0.0037864823825657368,-0.0022916500456631184,0.0013619405217468739,0.03202244720458984,0.16819266662597654,9.716568162536621
248516425235000,-0.0031012510880827904,-0.0018884475575760007,0.001958222361281514,0.03725976333618164,0.1758241844177246,9.706841718292235
248516435205000,-0.0029643645975738764,-0.0015638081822544336,0.001389104756526649,0.022744915771484374,0.16774375381469725,9.705345342254638
248516445175000,-0.0031502533238381147,0.00024580975878052413,0.0007773766992613673,0.03202244720458984,0.1657984649658203,9.699808750915526
248516455144000,-0.002712429501116276,-0.0013827132061123848,0.001988049829378724,0.020201076507568357,0.16385317611694336,9.712677584838866
248516465114000,-0.00321816373616457,-0.0013171994360163808,0.00098217383492738,0.033518823242187495,0.1771709228515625,9.714622873687743
248516475084000,-0.004047472029924393,-0.002288188086822629,0.00041571943438611925,0.03950432739257812,0.16026187362670896,9.718214176177979
248516485053000,-0.004049869254231453,-0.0011379687348380685,0.0023039006628096104,0.03950432739257812,0.16295535049438475,9.713725048065186
248516495023000,-0.0037947380915284157,-0.002026133006438613,0.0012266519479453564,0.04399345550537109,0.1637035385131836,9.71058265838623
248516504993000,-0.0031260184478014708,-0.0014825817197561264,0.0011374361347407103,0.033219548034667964,0.15861585998535155,9.714323598480224
248516514963000,-0.003632818115875125,-0.002971821464598179,0.000988032785244286,0.036361937713623046,0.1605611488342285,9.711630121612549
248516524932000,-0.004033091012388468,-0.003372893435880542,0.001279116258956492,0.033518823242187495,0.16086042404174802,9.715969612121581
248516534902000,-0.0025513083674013615,-0.0009829727932810783,0.001722798915579915,0.035464112091064454,0.16250643768310546,9.71671780014038
248516544872000,-0.0038978024385869503,-0.0024474449455738068,0.0019896477460861206,0.03561374969482422,0.16953940505981444,9.708487731933593
248516554841000,-0.004059456288814545,-0.0017574200173839927,0.0030921963043510914,0.03621230010986328,0.16729484100341796,9.714473236083984
248516564811000,-0.0019323896849527955,-0.0002567287301644683,0.0014330470003187656,0.03681085052490234,0.16415245132446288,9.71581997451782
248516574781000,-0.001978995045647025,-0.0014029532903805375,0.0012942962348461151,0.02154781494140625,0.17941548690795897,9.714473236083984
248516584751000,-0.002939597237855196,-0.0016823188634589314,0.0017134778900071979,0.02289455337524414,0.16953940505981444,9.722104753875731
248516594720000,-0.002757969545200467,-0.0016447682864964008,0.0020999026019126177,0.01915361328125,0.17417817077636719,9.7170170753479
248516604690000,-0.002838130807504058,-0.0007065366371534765,0.0013677994720637798,0.02858078231811523,0.15352818145751954,9.70459715423584
248516614660000,-0.001576857641339302,-0.0009323726990260184,0.0019979034550487995,0.02424129180908203,0.15547347030639647,9.710881933593749
248516624629000,-0.0022367890924215317,-0.001671666163019836,0.001097755040973425,0.029628245544433593,0.16026187362670896,9.708787007141114
248516634599000,-0.0017124125733971596,-0.0012578109744936228,0.0027329358272254467,0.03007715835571289,0.1541267318725586,9.726593881988524
248516644569000,-0.0024836640805006027,-0.002356897573918104,0.0017923073610290885,0.030974983978271482,0.1619078872680664,9.719112001800536
248516654539000,-0.00373082235455513,-0.0017102820565924048,0.0006253102328628302,0.025737667846679687,0.16789339141845702,9.710433020782471
248516664508000,-0.001984853995963931,-0.003913781605660915,0.0007025419035926461,0.029927520751953124,0.1683423042297363,9.706991355895996
248516674478000,-0.0036661075428128242,-0.0019374496769160032,0.0004753742541652173,0.022445640563964843,0.16295535049438475,9.696666361236572
248516684448000,-0.0023209447972476482,-0.001329716295003891,0.0015651397407054901,0.01975216369628906,0.15248071823120116,9.703100778198241
248516694418000,-0.0012205267557874322,-0.0015515576815232635,0.001270327833481133,0.036062662506103516,0.16430208892822265,9.699060562896728
248516704387000,-0.0018777948571369052,-0.001359543763101101,0.00152359448838979,0.029628245544433593,0.1767220100402832,9.71118120880127
248516714357000,-0.0024024376180022955,-0.00166607357095927,0.0019257317762821913,0.043544542694091797,0.1671452033996582,9.722104753875731
248516724327000,-0.0033009881153702736,-0.0015403723809868097,0.0019403791520744562,0.023642741394042967,0.16355390090942382,9.705345342254638
248516734296000,-0.0017387778498232365,-0.0015840481501072645,0.0022778017446398735,0.03007715835571289,0.16130933685302734,9.726743519592285
248516744266000,-0.0028698223177343607,-0.002852778183296323,0.0008724515791982412,0.03965396499633789,0.1632546257019043,9.722104753875731
248516754236000,-0.0023960459511727095,-0.0006138586322776973,0.0007323693134821951,0.029179332733154296,0.1610100616455078,9.69696563644409
248516764205000,-0.0026288062799721956,-0.0014194648247212172,0.0012311793398112059,0.04548983154296875,0.15427636947631834,9.704297879028319
248516774175000,-0.0026346652302891016,-0.0014705975772812963,0.0015590144321322441,0.028880057525634766,0.16011223602294922,9.713126497650146
248516784145000,-0.001680720946751535,-0.0007542071980424225,0.000734766130335629,0.02663549346923828,0.15637129592895507,9.716119249725342
248516794115000,-0.002266349969431758,-0.003546265186741948,0.0015342470724135637,0.026485855865478514,0.1637035385131836,9.706243167877197
248516804084000,-0.004195011220872402,-0.0011496866354718804,0.0012040151050314307,0.03396773605346679,0.17253215713500974,9.718513451385498
248516814054000,-0.0031047132797539234,-0.0006918892613612115,0.0023667511995881796,0.040102877807617184,0.16265607528686524,9.700556938934326
248516824024000,-0.00352868833579123,-0.0031068436801433563,0.002080195117741823,0.03666121292114258,0.155772745513916,9.697115274047851
248516833994000,-0.001603222917765379,-0.001925199176184833,0.0021824603900313377,0.033219548034667964,0.15263035583496093,9.699659113311768
248516843963000,-0.002397643867880106,-0.002389121800661087,0.0010074737947434187,0.029179332733154296,0.15397709426879883,9.717765263366699
248516853933000,-0.00270630419254303,-0.0014980280539020896,0.00030120351584628224,0.036361937713623046,0.155772745513916,9.717914900970458
248516863903000,-0.002502039773389697,-0.000669518718495965,0.0003885551996063441,0.04504091873168945,0.16819266662597654,9.695020347595214
248516873872000,-0.0012825783342123032,-0.0007566040731035173,0.002383529208600521,0.01571194839477539,0.16909049224853515,9.71118120880127
248516883842000,-0.0016921724891290069,-0.001764077926054597,0.0018192053539678454,0.018704700469970702,0.16265607528686524,9.70968483276367
248516893812000,-0.0034469293896108866,-0.00210629403591156,0.001978728687390685,0.024091654205322263,0.15951368560791016,9.72285294189453
248516903782000,-0.002689526416361332,-0.000853809411637485,0.0023313311394304037,0.03277063522338867,0.16864157943725586,9.71671780014038
248516913751000,-0.0023917849175632,-0.0011949603212997317,0.0006348976166918874,0.025438392639160156,0.1632546257019043,9.722104753875731
248516923721000,-0.0010010822443291545,-0.001136104459874332,0.0019864519126713276,0.01601122360229492,0.15816694717407226,9.714473236083984
248516933691000,-0.003096457337960601,-0.0019473034190014005,0.0027316042687743902,0.040701428222656245,0.16250643768310546,9.728239895629882
248516943660000,-0.0033691651187837124,-0.0024170849937945604,0.0017451694002375007,0.04249707946777344,0.15876549758911132,9.711480484008788
248516953630000,-0.003385410411283374,-0.0022357236593961716,0.0008711199625395238,0.03651157531738281,0.17073650588989256,9.717615625762939
248516963600000,-0.003943342715501785,-0.0029920614324510098,0.001199221471324563,0.03007715835571289,0.15562310791015624,9.703400053405762
248516973570000,-0.0037947380915284157,-0.0021819279063493013,0.002017610939219594,0.03426701126098632,0.1541267318725586,9.69831237487793
248516983539000,-0.0031079088803380728,-0.002438922878354788,0.0018780612153932452,0.020201076507568357,0.1619078872680664,9.713575410461425
248516993509000,-0.0025302693247795105,-0.0017566210590302944,0.002947586588561535,0.02528875503540039,0.16250643768310546,9.712527947235106
248517003479000,-0.002394980750977993,-0.0005834985640831292,0.0015246596885845065,0.02693476867675781,0.16894085464477537,9.706392805480956
248517013449000,-0.0028210864402353764,-0.002596848411485553,0.002010952914133668,0.028431144714355466,0.1666962905883789,9.712378309631347
248517023418000,-0.0029907298739999533,-0.0016817862633615732,0.0005512743373401463,0.02693476867675781,0.16549918975830077,9.711480484008788
248517033388000,-0.0010484865633770823,-0.0015305186389014125,0.0016508935950696468,0.022296002960205077,0.16759411621093748,9.70504606704712
248517043358000,-0.0028581044171005487,-0.0015385081060230732,1.6777914424892515e-05,0.0330699104309082,0.16250643768310546,9.716568162536621
248517053327000,-0.002820287598297,-0.002597114769741893,0.001907089608721435,0.033518823242187495,0.16205752487182618,9.706692080688477
248517063297000,-0.002457298804074526,-0.001799764228053391,0.0019449065439403057,0.03426701126098632,0.15607202072143553,9.70459715423584
248517073267000,-0.003072755178436637,-0.002394714392721653,0.000687361869495362,0.027234043884277342,0.1614589744567871,9.728988083648682
248517083237000,-0.0026290726382285357,-0.002258626976981759,0.0017816547770053148,0.025438392639160156,0.1671452033996582,9.722104753875731
248517093206000,-0.002820287598297,-0.0012093414552509785,0.002969424705952406,0.040102877807617184,0.16310498809814453,9.718663088989258
248517103176000,-0.0031499869655817747,-1.1185276889591478e-05,0.000594950164668262,0.03845686416625976,0.16265607528686524,9.724199680328368
248517113146000,-0.0024687503464519978,-0.0026138925459235907,0.002433330286294222,0.0330699104309082,0.15652093353271485,9.707739543914794
248517123116000,-0.0041702440939843655,-0.0027260116767138243,0.002712695859372616,0.04668693237304687,0.15846622238159178,9.722703304290771
248517133085000,-0.0035923379473388195,-0.0022037657909095287,0.0017728663515299559,0.027533319091796873,0.17238251953125,9.712677584838866
248517143055000,-0.0031933963764458895,-0.001586178783327341,0.0025121597573161125,0.025887305450439452,0.17328034515380858,9.711929396820068
248517153025000,-0.0031848743092268705,-0.0018642127979546785,0.0010892328573390841,0.04234744186401367,0.16774375381469725,9.704297879028319
248517162994000,-0.0036767602432519197,-0.0014234596164897084,0.0005685848882421851,0.039354689788818356,0.16160861206054686,9.714922148895264
248517172964000,-0.003489007242023945,-0.0005398227367550135,0.0003938815207220614,0.03127425918579101,0.165349552154541,9.698611650085448
248517182934000,-0.0032261533197015524,-0.0017363809747621417,0.003266899613663554,0.031124621582031248,0.1580173095703125,9.706093530273437
248517192904000,-0.0012697952333837748,-0.002558498876169324,0.001969407545402646,0.033219548034667964,0.16130933685302734,9.705943892669676
248517202873000,-0.00373135507106781,-0.0006482133758254349,0.0015691345324739814,0.03815758895874023,0.1693897674560547,9.708787007141114
248517212843000,-0.0019033611752092838,-0.0019172097090631723,0.0003904194163624197,0.039055414581298825,0.16505027694702148,9.699509475708007
248517222813000,-0.003961718175560236,-0.0027395938523113728,0.0008812400046736002,0.028730419921875,0.17043723068237304,9.7170170753479
248517232783000,-0.0031899344176054,-0.003221093211323023,0.0014570154016837478,0.030974983978271482,0.15831658477783203,9.711031571197509
248517242752000,-0.004098871257156134,-0.0020149475894868374,0.0009528790251351893,0.04129997863769531,0.1649006393432617,9.70459715423584
248517252722000,-0.0025009745731949806,-0.001910285442136228,0.001469798618927598,0.030226795959472655,0.15696984634399413,9.706991355895996
248517262692000,-0.0020743361674249172,-0.0005358280031941831,0.00034115093876607716,0.023343466186523436,0.16160861206054686,9.699659113311768
248517272661000,-0.0025656893849372864,-0.0007414240390062332,0.0006543386843986809,0.04249707946777344,0.16250643768310546,9.702951140594482
248517282631000,-0.002180862706154585,-0.0010213222121819854,0.002133458387106657,0.029179332733154296,0.16041151123046873,9.707739543914794
248517292601000,-0.002365685999393463,-0.001910285442136228,0.0018967032665386796,0.030825346374511717,0.16086042404174802,9.706093530273437
248517302570875,-0.0029497172217816114,-0.0023347933311015368,0.0019140138756483793,0.03501519927978516,0.15996259841918944,9.712228672027587
248517312539875,-0.003254649229347706,-0.0023102923296391964,0.0020756677258759737,0.03651157531738281,0.15592238311767578,9.714024323272705
248517322509875,-0.004345479886978865,-0.0024519723374396563,0.0016620787791907787,0.03366846084594726,0.18001403732299803,9.710433020782471
248517332479875,-0.004262655507773161,-0.002049302449449897,0.0005435511702671647,0.04534019393920898,0.17357962036132812,9.71118120880127
248517342449875,-0.0043982104398310184,-0.003204581793397665,6.844323797849938e-05,0.037708676147460936,0.17387889556884764,9.693823246765136
248517352418875,-0.0043747746385633945,-0.0027121631428599358,0.0009339706157334149,0.033818098449707026,0.1589151351928711,9.709385557556152
248517362388875,-0.002612827345728874,-0.0025457157753407955,0.00017843178648035973,0.0234931037902832,0.1623568000793457,9.721057290649414
248517372358875,-0.0031425300985574722,-0.0011619371362030506,0.0009366337326355278,0.02289455337524414,0.15981296081542967,9.701454764556884
248517382328875,-0.001443166984245181,-0.0013259878614917397,7.376955909421667e-05,0.03995324020385742,0.16894085464477537,9.709535195159912
248517392297875,-0.0016258598770946264,-0.0026932547334581614,0.0008860336965881288,0.037409400939941405,0.1714846939086914,9.707739543914794
248517402267875,-0.0023675502743571997,-0.0010900318156927824,0.001213868847116828,0.041748891448974604,0.1605611488342285,9.71731635055542
248517412237875,-0.0038402783684432507,8.788431841821875e-06,0.0024980450980365276,0.033219548034667964,0.15113397979736326,9.708487731933593
248517422207875,-0.0015060176374390721,-0.0015824503498151898,0.0021856562234461308,0.03232172241210937,0.16894085464477537,9.712976860046385
248517432176875,-0.0018250643042847514,-0.0009912285022437572,0.002061286708340049,0.03441664886474609,0.15592238311767578,9.705195704650878
248517442146875,-0.001793905277736485,-0.00032384038786403835,0.0008138620178215206,0.0326209976196289,0.16071078643798828,9.700556938934326
248517452116875,-0.0022836606949567795,-0.0002996056282427162,0.002161954063922167,0.032172084808349606,0.16519991455078123,9.711929396820068
248517462086875,-0.0015185344964265823,-0.0009502158500254154,0.001555818715132773,0.032920272827148434,0.16639701538085935,9.720758015441893
248517472055875,-0.004116448108106852,-0.0007917577750049531,0.0012815131340175867,0.03336918563842773,0.16699556579589842,9.713725048065186
248517482025875,-0.00253399764187634,-0.001561944023706019,0.0012487561907619238,0.047584757995605464,0.1693897674560547,9.69741454925537
248517491995875,-0.0036136433482170105,-0.0025097629986703396,0.0028764803428202868,0.027383681488037107,0.17268179473876952,9.699509475708007
248517501964875,-0.0029411951545625925,-0.0020762004423886538,0.0016724651213735342,0.025438392639160156,0.16115969924926757,9.714323598480224
248517511934875,-0.00290417717769742,-0.002356098499149084,0.00048123320448212326,0.034715924072265626,0.16519991455078123,9.712976860046385
248517521904875,-0.0019196064677089453,-0.0017118799732998013,0.0015185344964265823,0.047584757995605464,0.16445172653198242,9.706991355895996
248517531874875,-0.0025654230266809464,-0.002457564929500222,0.000835966260638088,0.03142389678955078,0.16849194183349608,9.713276135253906
248517541843875,-0.0029862024821341038,-0.0016463662032037973,0.0023254721891134977,0.03202244720458984,0.1623568000793457,9.703250415802001
248517551813875,-0.002796851797029376,-0.0027166905347257853,0.000594950164668262,0.026785131072998045,0.16744447860717773,9.704746791839598
248517561783875,-0.0025739450938999653,-0.000529436394572258,0.003357979701831937,0.03366846084594726,0.15367781906127928,9.709834470367431
248517571753875,-0.0022567627020180225,-0.0011555455857887864,0.00039974047103896737,0.031573534393310544,0.1548749198913574,9.711031571197509
248517581722875,-0.0024953819811344147,-0.0025592977181077003,0.003238936420530081,0.02558803024291992,0.16460136413574217,9.720309102630615
248517591692875,-0.0007193197961896658,-0.002414954360574484,0.004269047174602747,0.04025251541137695,0.16953940505981444,9.704297879028319
248517601662875,-0.00207699928432703,-0.002751844236627221,0.0011909656459465623,0.029628245544433593,0.15786767196655271,9.715221424102783
248517611632875,-0.0032386700622737408,-0.002186721656471491,0.001184041379019618,0.025438392639160156,0.16505027694702148,9.724199680328368
248517621601875,-0.0051628039218485355,-0.002017078222706914,-0.00024394555657636374,0.037708676147460936,0.17477672119140625,9.70968483276367
248517631571875,-0.0034903388004750013,-0.001433845958672464,0.001359277404844761,0.040701428222656245,0.1740285331726074,9.719710552215576
248517641541875,-0.0006977482116781175,-0.001543568097986281,0.0008367652189917862,0.04189852905273437,0.14859014053344727,9.694122521972655
248517651511875,-0.0024341291282325983,-0.0016176040517166257,0.0006679208017885685,0.02154781494140625,0.15352818145751954,9.695020347595214
248517661480875,-0.0027867318131029606,-0.0001155811914941296,0.0008471515611745417,0.03860650177001953,0.1623568000793457,9.710433020782471
248517671450875,-0.003948136232793331,-0.001121723442338407,-0.0006950850365683436,0.04249707946777344,0.16729484100341796,9.69786346206665
248517681420875,-0.002978213131427765,-0.0010684601729735732,0.002379534300416708,0.040402153015136714,0.1696890426635742,9.718363813781737
248517691390875,-0.002528937766328454,-0.002591521944850683,2.5832661776803434e-05,0.027682956695556638,0.15472528228759766,9.722104753875731
248517701359875,-0.002575809368863702,-0.0007848335662856698,0.0014942996203899384,0.030825346374511717,0.15292963104248045,9.707140993499756
248517711329875,-0.0026162895374000072,-0.002728408435359597,-0.00011771172285079956,0.03681085052490234,0.17073650588989256,9.701005851745604
248517721299875,-0.003037867834791541,-0.002070607617497444,0.0019212043844163418,0.028431144714355466,0.15816694717407226,9.71731635055542
248517731269875,-0.001654622028581798,-0.002055161399766803,0.002314287004992366,0.028131869506835935,0.16684592819213867,9.69846201248169
248517741238875,-0.0015997608425095677,-0.002612827345728874,0.0019632822368294,0.029478607940673827,0.1693897674560547,9.699359838104247
248517751208875,-0.0025750105269253254,-0.0029859361238777637,0.001270594191737473,0.036361937713623046,0.155772745513916,9.698910925292969
248517761178875,-0.004123372491449118,-0.0023254721891134977,0.0016442356863990426,0.02483984222412109,0.1484405029296875,9.702202952575684
248517771148875,-0.0016769925132393837,-0.001674861996434629,-0.00012916330888401717,0.024390929412841794,0.17163433151245117,9.71058265838623
248517781118875,-0.0029028456192463636,-0.001668736687861383,0.0009201221400871873,0.030974983978271482,0.17118541870117188,9.713126497650146
248517791087875,-0.0018242653459310532,-0.0034972631838172674,0.001885784324258566,0.027682956695556638,0.17372925796508787,9.71028338317871
248517801057875,-0.0032487902790308,-0.001014664419926703,0.0034013893455266953,0.03815758895874023,0.1666962905883789,9.70504606704712
248517811027875,-0.0027363980188965797,-0.0018287927377969027,0.0009025452891364694,0.040402153015136714,0.1479915901184082,9.69696563644409
248517820997875,-0.002246376359835267,-0.001472728094086051,-1.3315805517777335e-05,0.033818098449707026,0.15068506698608397,9.695169985198975
248517830966875,-0.0014535533264279366,-0.0007872303831391037,0.00048123320448212326,0.037110125732421874,0.15472528228759766,9.702053314971923
248517840936875,-0.0016431703697890043,-0.0004945489927195013,0.0008194546680897474,0.033219548034667964,0.16594810256958006,9.718064538574218
248517850906875,-0.002034921431913972,-0.0003757720405701548,0.0017856494523584843,0.040402153015136714,0.15996259841918944,9.707140993499756
248517860876875,-0.002240783767774701,-0.0010498181218281388,0.0006737797521054745,0.041000703430175776,0.1657984649658203,9.727042794799804
248517870845875,-0.0029145635198801756,-0.0014572817599400878,0.00012756542128045112,0.023942016601562498,0.1580173095703125,9.713425772857665
248517880815875,-0.004063717555254698,-0.0023070964962244034,0.0013321131700649858,0.0282815071105957,0.1619078872680664,9.698761287689209
248517890785875,-0.002653573639690876,-0.001112935016863048,0.0009094694978557527,0.015263035583496093,0.16983868026733398,9.710881933593749
248517900755875,-0.004165982827544212,-0.002572879893705249,0.00148125016130507,0.03142389678955078,0.17657237243652343,9.71028338317871
248517910724875,-0.002573412610217929,-0.0018543590558692813,0.002784334821626544,0.033518823242187495,0.16729484100341796,9.702202952575684
248517920694875,-0.004815261345356703,-0.0010213222121819854,0.0015715312911197543,0.03561374969482422,0.16385317611694336,9.700257663726806
248517930664875,-0.0026959178503602743,-0.0013166668359190226,0.002019474981352687,0.04115034103393554,0.1649006393432617,9.707589906311034
248517940634875,-0.0032858080230653286,-0.0026051041204482317,0.0020010992884635925,0.04249707946777344,0.17043723068237304,9.707589906311034
248517950603875,-0.0009155947482213378,-0.0019286612514406443,0.0016146745765581727,0.038756139373779294,0.17208324432373046,9.706093530273437
248517960573875,-0.0030775489285588264,0.00035952674807049334,0.0006599313346669078,0.03336918563842773,0.17761983566284179,9.706392805480956
248517970543875,-0.0027177559677511454,-0.0019214707426726818,0.0029702235478907824,0.04234744186401367,0.1541267318725586,9.713874685668944
248517980513875,-0.002383262850344181,-0.001657551503740251,-0.0002567287301644683,0.033518823242187495,0.1623568000793457,9.714323598480224
248517990483875,-0.0027803401462733746,-0.0007651261985301971,0.0011507519520819187,0.032172084808349606,0.16130933685302734,9.724050042724608
248518000452875,-0.003040264593437314,-0.002671949565410614,0.000969656917732209,0.02259527816772461,0.16699556579589842,9.713276135253906
248518010422875,-0.0033630398102104664,-0.00180881901178509,0.00264798104763031,0.03396773605346679,0.16654665298461913,9.71641852493286
248518020392875,-0.004206995479762554,-0.0021108214277774096,0.00013875069271307439,0.02289455337524414,0.1596633232116699,9.70444751663208
248518030362875,-0.002216282533481717,-0.0015843145083636045,0.001576857641339302,0.026186580657958983,0.1614589744567871,9.69142904510498
248518040331875,-0.0020730046089738607,-0.001871403306722641,0.003724697045981884,0.03890577697753906,0.14859014053344727,9.69786346206665
248518050301875,-0.0035928706638514996,-0.00016218650853261352,0.0034091125708073378,0.03800795135498047,0.1605611488342285,9.698761287689209
248518060271875,-0.002490321872755885,-0.0002633866388350725,0.0010759170399978757,0.03890577697753906,0.16879121704101563,9.713575410461425
248518070241875,-0.0027204190846532583,-0.0009209210984408855,0.000666322885081172,0.043245267486572266,0.17417817077636719,9.705195704650878
248518080211875,-0.00475587323307991,-0.003882622579112649,-5.4328484111465514e-05,0.044891281127929686,0.16295535049438475,9.717765263366699
248518090180875,-0.003513508476316929,-0.0013028184184804559,0.002930009737610817,0.04025251541137695,0.16415245132446288,9.69801309967041
248518100150875,-0.002691923175007105,-0.0017723336350172758,0.001514539704658091,0.02977788314819336,0.16819266662597654,9.708188456726074
248518110120875,-0.003745203372091055,-0.0010452907299622893,0.0009403621661476791,0.0234931037902832,0.1589151351928711,9.715670336914062
248518120090875,-0.003454119898378849,-2.5566347176209092e-05,0.0008511462947353721,0.041748891448974604,0.17208324432373046,9.714772511291503
248518130059875,-0.004172374494373798,-0.002094309777021408,0.0016375777777284384,0.03007715835571289,0.16699556579589842,9.712976860046385
248518140029875,-0.0017654094845056534,-0.0013254552613943815,0.002226402750238776,0.02424129180908203,0.15786767196655271,9.699060562896728
248518149999875,-0.0024863271974027157,-0.0007384945638477802,0.0018975022248923779,0.03621230010986328,0.1619078872680664,9.720758015441893
248518159969875,-0.003655987558886409,-0.0010575412306934595,0.0008415589109063148,0.019303250885009764,0.17028759307861327,9.71731635055542
248518169939875,-0.0032831449061632156,-0.0013768542557954788,0.0010636665392667055,0.02454056701660156,0.17687164764404295,9.710433020782471
248518179908875,-0.002793123247101903,-0.0011113371001556516,0.000570981705095619,0.04279635467529297,0.17342998275756835,9.71013374557495
248518189878875,-0.002883138135075569,-0.001606418751180172,0.0015110776294022799,0.033518823242187495,0.15981296081542967,9.71686743774414
248518199848875,-0.00330338510684669,-0.0027688886038959026,0.002457298804074526,0.028131869506835935,0.15741875915527342,9.71671780014038
248518209818875,-0.0018668759148567915,-0.0014927018200978637,0.0011776498286053538,0.033818098449707026,0.1505354293823242,9.706692080688477
248518219788875,-0.004307130351662636,-0.0029374666046351194,0.0017595505341887474,0.03980360260009765,0.16115969924926757,9.698910925292969
248518229757875,-0.0028216191567480564,-0.0019140138756483793,0.0011560781858861446,0.04129997863769531,0.17372925796508787,9.704896429443359
248518239727875,-0.0020777983590960503,-0.0010018812026828527,0.002350505907088518,0.02454056701660156,0.17567454681396483,9.696367086029053
248518249697875,-0.003349723992869258,-0.0020591560751199722,0.001353418454527855,0.029628245544433593,0.1701379554748535,9.696516723632811
248518259667875,-0.0018745990237221122,-0.0010578075889497995,0.002246909076347947,0.03232172241210937,0.14694412689208983,9.707889181518555
248518269637875,-0.002633067313581705,-0.0038807583041489124,0.00207673292607069,0.04115034103393554,0.15876549758911132,9.709086282348633
248518279606875,-0.002743055811151862,-5.459480235003866e-05,5.219795639277436e-05,0.03067570877075195,0.16594810256958006,9.706392805480956
248518289576875,-0.004223241005092859,-0.000538491178303957,0.0024170849937945604,0.03172317199707031,0.16744447860717773,9.702352590179443
248518299546667,-0.0028991170693188906,-0.0005560680292546749,0.0022855247370898724,0.03516483688354492,0.17387889556884764,9.721655841064452
248518309516667,-0.0027329358272254467,-0.001320927869528532,0.0016287893522530794,0.035763387298583985,0.15876549758911132,9.708338094329834
248518319486667,-0.003440005239099264,-0.002525741932913661,0.001966478070244193,0.030825346374511717,0.16564882736206055,9.705794255065918
248518329455667,-0.0022801985032856464,-0.0015390408225357533,0.001537975505925715,0.03456628646850586,0.16505027694702148,9.701754039764404
248518339425667,-0.0014950985787436366,-0.0008231831016018987,0.001734516816213727,0.0430956298828125,0.16594810256958006,9.696217448425292
248518349395667,-0.003177151083946228,-0.001079645473510027,0.0016900419723242521,0.0378583137512207,0.1637035385131836,9.70369932861328
248518359365667,-0.0024258734192699194,-0.0014018879737704992,0.0027691549621522427,0.033518823242187495,0.16385317611694336,9.70369932861328
248518369335667,-0.0013941648649051785,-0.0011832424206659198,0.001549959764815867,0.023343466186523436,0.16011223602294922,9.712228672027587
248518379304667,-0.002924949862062931,-0.001282312092371285,0.0013313142117112875,0.025887305450439452,0.16130933685302734,9.71671780014038
248518389274667,-0.0019390475936233997,-0.0021262678783386946,0.001184307737275958,0.03172317199707031,0.1589151351928711,9.701305126953125
248518399244667,-0.0030067088082432747,-0.0008977515972219408,0.0023933828342705965,0.03067570877075195,0.1623568000793457,9.70459715423584
248518409214667,-0.0037350833881646395,-0.0026932547334581614,0.001109739183448255,0.038756139373779294,0.16684592819213867,9.705943892669676
248518419184667,-0.0016929714474827051,-0.0017526262672618032,0.0021078919526189566,0.04534019393920898,0.16594810256958006,9.713725048065186
248518429153667,-0.0029204224701970816,-0.0014407701091840863,0.0028125643730163574,0.03890577697753906,0.17387889556884764,9.714024323272705
248518439123667,-0.0013821806060150266,-0.000627973407972604,0.0023366576060652733,0.02858078231811523,0.16460136413574217,9.70414824142456
248518449093667,-0.0021912488155066967,-0.0024881914723664522,0.0006892260862514377,0.03142389678955078,0.17118541870117188,9.711330846405028
248518459063667,-0.003972637467086315,-0.0020445086993277073,0.003266899613663554,0.04474164352416992,0.16160861206054686,9.714024323272705
248518469033667,-0.0019355855183675885,-0.0013739247806370258,0.0001246359315700829,0.03037643356323242,0.1637035385131836,9.72360112991333
248518479002667,-0.0027443873696029186,-0.002669286448508501,0.0016919062472879887,0.034715924072265626,0.16220716247558592,9.712079034423828
248518488972667,-0.0005997438565827906,-0.002088450826704502,0.001199221471324563,0.04638765716552734,0.1632546257019043,9.71581997451782
248518498942667,-0.002154231071472168,-0.0016160061350092292,0.001317998394370079,0.04997895965576172,0.1623568000793457,9.717765263366699
248518508912667,-0.004877046681940556,-0.0017358483746647835,0.0007307713967747986,0.0326209976196289,0.1666962905883789,9.70414824142456
248518518882667,-0.003999002743512392,-0.002389121800661087,0.0013219931861385703,0.023942016601562498,0.16699556579589842,9.71028338317871
248518528851667,-0.0029403960797935724,-0.0022479742765426636,0.0002972087822854519,0.027832594299316404,0.1657984649658203,9.704746791839598
248518538821667,-0.0031614385079592466,-0.002091380301862955,0.0013736584223806858,0.032172084808349606,0.17268179473876952,9.70369932861328
248518548791667,-0.0031553131993860006,-0.002454369328916073,0.0023007048293948174,0.037110125732421874,0.16355390090942382,9.70414824142456
248518558761667,-0.002826412906870246,-0.002418416552245617,0.001067661214619875,0.046238019561767575,0.1662473777770996,9.720309102630615
248518568731667,-0.002645051572471857,-0.00148125016130507,0.0023523701820522547,0.037110125732421874,0.15951368560791016,9.709535195159912
248518578701667,-0.002692455891519785,-0.0008823052630759776,0.0010498181218281388,0.058957215881347655,0.15532383270263672,9.713425772857665
248518588670667,-0.0025627599097788334,-0.0030458574183285236,0.0028423918411135674,0.03411737365722656,0.15397709426879883,9.69771382446289
248518598640667,-0.003936951048672199,-0.0018607506062835455,0.0022767363116145134,0.02498947982788086,0.16250643768310546,9.71716671295166
248518608610667,-0.003070092061534524,-0.0033041839487850666,0.0005012069013901055,0.032172084808349606,0.16160861206054686,9.706392805480956
248518618580667,-0.0020485036075115204,-0.0018580874893814325,0.00010839065362233669,0.03411737365722656,0.1637035385131836,9.701305126953125
248518628550667,-0.002070607617497444,-0.0010404969798400998,0.0006482133758254349,0.0330699104309082,0.15562310791015624,9.700407301330566
248518638519667,-0.0016338493442162871,-0.002043443499132991,-6.711165769957006e-05,0.03456628646850586,0.16549918975830077,9.711929396820068
248518648489667,-0.0026378610637038946,-0.0017451694002375007,0.002272741636261344,0.03501519927978516,0.15307926864624022,9.703848966217041
248518658459667,-0.003418433479964733,-0.0019765980541706085,-0.0002745719102676958,0.0430956298828125,0.16265607528686524,9.706542443084716
248518668429667,-0.0016053534345701337,-9.081379539566115e-05,0.0008668589289300144,0.027682956695556638,0.16699556579589842,9.704896429443359
248518678399667,-0.003736414946615696,-0.0018303906545042992,0.0005550027708522975,0.033518823242187495,0.1623568000793457,9.706991355895996
248518688369667,-0.002356098499149084,-0.0008761800127103925,0.002344646956771612,0.037708676147460936,0.16594810256958006,9.698761287689209
248518698338667,-0.004245611373335123,-0.0011867046123370528,0.0004194478678982705,0.03681085052490234,0.16265607528686524,9.703400053405762
248518708308667,-0.00037444045301526785,-0.0014703312190249562,-0.00015393071225844324,0.039354689788818356,0.17073650588989256,9.713276135253906
248518718278667,-0.002173938322812319,-0.002195776207372546,0.00264798104763031,0.03202244720458984,0.15367781906127928,9.711630121612549
248518728248667,-0.0012807141756638885,-0.0006157228490337729,-0.0013371731620281935,0.04668693237304687,0.1589151351928711,9.708787007141114
248518738218667,-0.003305515507236123,-0.0020879183430224657,0.0009709885343909264,0.030974983978271482,0.1614589744567871,9.707889181518555
248518748188667,-0.00047377636656165123,-0.0020988371688872576,0.0019718045368790627,0.0330699104309082,0.1693897674560547,9.713126497650146
248518758157667,-0.00475454144179821,-0.002642654813826084,0.0016964336391538382,0.03277063522338867,0.15996259841918944,9.712079034423828
248518768127667,-0.0032442628871649504,-0.0009145294898189604,0.0013880395563319325,0.04339490509033203,0.16894085464477537,9.708338094329834
248518778097667,-0.005624862387776375,-0.0031587753910571337,0.0008522115531377494,0.03486556167602539,0.1728314323425293,9.7170170753479
248518788067667,-0.0033867419697344303,-0.0033358754590153694,0.0009267800487577915,0.02858078231811523,0.1680430290222168,9.717914900970458
248518798037667,-0.0032706281635910273,-0.0025808694772422314,0.001651426195167005,0.025887305450439452,0.1571194839477539,9.702202952575684
248518808007667,-0.0022748722694814205,-0.0016157397767528892,-0.00031079089967533946,0.0282815071105957,0.15532383270263672,9.699509475708007
248518817976667,-0.003436276689171791,-0.0013851100811734796,0.0008165251929312944,0.037110125732421874,0.1527799934387207,9.708038819122313
248518827946667,-0.0026911243330687284,-0.0007427555974572897,0.001088700257241726,0.03456628646850586,0.1610100616455078,9.701903677368163
248518837916667,-0.0040826257318258286,-0.001588841900229454,0.0018271948210895061,0.03965396499633789,0.16654665298461913,9.706841718292235
248518847886667,-0.002840261207893491,-0.001630387152545154,0.0018077536951750517,0.03501519927978516,0.15831658477783203,9.705494979858399
248518857856667,-0.004832305945456028,-0.0024168186355382204,0.0008636631537228823,0.04339490509033203,0.1444002876281738,9.706991355895996
248518867826667,-0.0016823188634589314,-0.001669269404374063,0.0005531385540962219,0.031573534393310544,0.1571194839477539,9.714323598480224
248518877796667,-0.0034911378752440214,-0.0010253170039504766,0.0022514364682137966,0.04055179061889648,0.1605611488342285,9.705494979858399
248518887765667,-0.003652791725471616,-0.0006849650526419282,0.0015608787070959806,0.028880057525634766,0.16894085464477537,9.692925421142577
248518897735667,-0.0032796829473227262,-0.0030831415206193924,0.0014301175251603127,0.03441664886474609,0.1614589744567871,9.72390040512085
248518907705667,-0.0013787185307592154,-0.0020519655663520098,0.002389654517173767,0.028880057525634766,0.16953940505981444,9.711630121612549
248518917675667,-0.0014674017438665032,-0.00079735042527318,0.0012157330056652427,0.03965396499633789,0.15307926864624022,9.699359838104247
248518927645667,-0.0024016385432332754,-0.0011081412667408586,0.0011563445441424847,0.031124621582031248,0.15562310791015624,9.705794255065918
248518937615667,-0.004918325692415237,-0.0022149509750306606,0.0005155879771336913,0.026785131072998045,0.15322890625,9.721057290649414
248518947584667,-0.003322825999930501,-0.001793905277736485,0.0010258496040478349,0.022744915771484374,0.15771803436279297,9.706991355895996
248518957554667,-0.0026019082870334387,-0.0010378338629379869,0.0021758025977760553,0.03426701126098632,0.17073650588989256,9.697264911651612
248518967524667,-0.0029830066487193108,-0.0025507756508886814,0.00098190747667104,0.045938744354248044,0.17986439971923826,9.709535195159912
248518977494667,-0.0033776871860027313,-0.0014801849611103535,0.0015403723809868097,0.030526071166992186,0.17163433151245117,9.71028338317871
248518987464667,-0.003690076060593128,-0.001275920425541699,0.0016397082945331931,0.015113397979736327,0.15263035583496093,9.712677584838866
248518997434667,-0.002834402257576585,-0.0028810077346861362,0.0006178533658385277,0.023792378997802732,0.15367781906127928,9.698611650085448
248519007404667,-0.0022945795208215714,-0.002603239845484495,0.0013587448047474027,0.0330699104309082,0.15637129592895507,9.708188456726074
248519017373667,-0.0029031119775027037,-0.0016953683225437999,0.0011065434664487839,0.03531447448730469,0.15906477279663084,9.715071786499022
248519027343667,-0.0030655646696686745,-0.0019140138756483793,-1.0120012120751198e-05,0.03441664886474609,0.1592144104003906,9.706991355895996
248519037313667,-0.0023379891645163298,-0.00088976213010028,0.0013784521725028753,0.03247136001586914,0.15876549758911132,9.698910925292969
248519047283667,-0.0013680658303201199,-0.0010996191995218396,0.0020666129421442747,0.04608838195800781,0.16115969924926757,9.713425772857665
248519057253667,-0.0011946940794587135,-0.0017686053179204464,0.001692705205641687,0.0326209976196289,0.16744447860717773,9.700407301330566
248519067223667,-0.0022897860035300255,0.00010918960470007733,0.0026935210917145014,0.041748891448974604,0.15981296081542967,9.709235919952391
248519077193667,-0.004135889001190662,-0.002049568807706237,0.0014405038673430681,0.025438392639160156,0.16160861206054686,9.706692080688477
248519087163667,-0.001341434195637703,-0.001312139444053173,-0.0004902879591099918,0.03037643356323242,0.15696984634399413,9.698910925292969
248519097132667,-0.002683667466044426,-0.0014421016676351428,0.001957956003025174,0.025887305450439452,0.16041151123046873,9.699958388519287
248519107102667,-0.0026405241806060076,-0.003177417442202568,0.003034672001376748,0.028880057525634766,0.17208324432373046,9.711929396820068
248519117072667,-0.0029286781791597605,-0.0002918824611697346,0.0013203952694311738,0.028730419921875,0.16026187362670896,9.706542443084716
248519127042667,-0.002156627830117941,0.0012034825049340725,0.0020724718924611807,0.0383072265625,0.1575683967590332,9.70968483276367
248519137012667,-0.003025883575901389,-0.0006857639527879655,0.0002772350562736392,0.027383681488037107,0.1666962905883789,9.711779759216308
248519146982667,-0.0019371833186596632,-0.0022335932590067387,0.0011978897964581847,0.030526071166992186,0.17298106994628906,9.711330846405028
248519156952667,-0.003194727934896946,-0.0035659726709127426,0.0014908375451341271,0.03965396499633789,0.17357962036132812,9.712228672027587
248519166921667,-0.003436543047428131,-0.002612827345728874,0.0023281353060156107,0.03067570877075195,0.15876549758911132,9.717914900970458
248519176891667,-0.0032408006954938173,-0.003442934714257717,0.0006985471700318158,0.040402153015136714,0.15876549758911132,9.714772511291503
248519186861667,-0.002547047333791852,-0.0026077672373503447,0.002225870033726096,0.04399345550537109,0.1640028137207031,9.690082306671142
248519196831667,-0.0032839439809322357,-0.00056219327962026,0.0005350290448404849,0.03591302490234375,0.15696984634399413,9.695020347595214
248519206801667,-0.003035204717889428,-0.002058889716863632,0.0015331818722188473,0.037409400939941405,0.16011223602294922,9.71028338317871
248519216771667,-0.002977680414915085,1.4647385796706658e-05,0.0007273092633113265,0.04384381790161133,0.16071078643798828,9.721057290649414
248519226741667,-0.0019238675013184547,-0.0018021611031144857,0.0015909724170342088,0.041000703430175776,0.1623568000793457,9.714922148895264
248519236711667,-0.001978995045647025,-0.003007774008437991,0.0031097731553018093,0.03411737365722656,0.16430208892822265,9.711330846405028
248519246680667,-0.0026098978705704212,-0.0019504991360008717,0.0018706043483689427,0.036062662506103516,0.14350246200561523,9.709086282348633
248519256650667,-0.0033776871860027313,-0.0017715347930788994,0.0019435749854892492,0.040402153015136714,0.14694412689208983,9.692326870727538
248519266620667,-0.0024439829867333174,-0.000526506919413805,0.00199337606318295,0.03456628646850586,0.15322890625,9.715969612121581
248519276590667,-0.0020841897930949926,-0.0026586337480694056,0.001496430253610015,0.04683656997680664,0.1640028137207031,9.698761287689209
248519286560667,-0.0026644926983863115,-0.001794171635992825,0.0018343853298574686,0.043245267486572266,0.1605611488342285,9.699958388519287
248519296530667,-0.0014743260107934475,-0.0030091057997196913,0.0017427726415917277,0.03591302490234375,0.1580173095703125,9.707739543914794
248519306501125,-0.0018551580142229795,-0.0008436894277110696,-0.00011132013605674729,0.027084406280517576,0.16894085464477537,9.689483756256102
248519316471125,-0.00048070057528093457,-0.0014620753936469555,0.0023361248895525932,0.02798223190307617,0.17298106994628906,9.693075058746338
248519326441125,-0.003150519449263811,-0.0005387574783526361,0.0011803129455074668,0.029478607940673827,0.1637035385131836,9.712677584838866
248519336410125,-0.0012327772565186024,-0.0013688647886738181,0.0021169467363506556,0.04025251541137695,0.1632546257019043,9.706542443084716
248519346380125,-0.002083390951156616,-0.0010242518037557602,0.001967277145013213,0.0282815071105957,0.15337854385375976,9.713126497650146
248519356350125,-0.0032115059439092875,-0.0028154938481748104,0.0014050838071852922,0.03067570877075195,0.16250643768310546,9.711630121612549
248519366320125,-0.0026059031952172518,-0.0015100123127922416,0.0023209447972476482,0.040701428222656245,0.1710357810974121,9.713276135253906
248519376290125,-0.003422162029892206,-0.0032732912804931402,0.0019883159548044205,0.03890577697753906,0.16310498809814453,9.705943892669676
248519386260125,-0.0022085595410317183,-0.0027590349782258272,0.00247594085521996,0.039055414581298825,0.1640028137207031,9.708487731933593
248519396230125,-0.0033100428991019726,-0.002228533150628209,0.0004117247008252889,0.03426701126098632,0.16130933685302734,9.69846201248169
248519406200125,-0.0026048377621918917,-0.0021792647894471884,0.0009629990672692657,0.040102877807617184,0.14948796615600585,9.704746791839598
248519416170125,-0.002892459277063608,-0.0018397116800770164,0.003139334265142679,0.03037643356323242,0.15816694717407226,9.707440268707275
248519426140125,-0.003296460723504424,-0.0009299758239649236,0.0022000374738126993,0.03037643356323242,0.15442600708007811,9.69741454925537
248519436109125,-0.0028152274899184704,-0.0013845774810761213,0.0006340986583381891,0.04234744186401367,0.1614589744567871,9.70369932861328
248519446079125,-0.003635747591033578,-0.0014788532862439752,0.00017496968212071806,0.03561374969482422,0.16744447860717773,9.71671780014038
248519456049125,-0.0031382690649479628,-0.0023734092246741056,0.002968359272927046,0.03591302490234375,0.16864157943725586,9.693224696350097
248519466019125,-0.0026703516487032175,-0.0012144014472141862,0.001458080718293786,0.030825346374511717,0.1605611488342285,9.708936644744872
248519475989125,-0.0026815368328243494,-0.0033691651187837124,0.0005811017472296953,0.02798223190307617,0.16071078643798828,9.717765263366699
248519485959125,-0.0028016455471515656,-0.002043709857389331,0.0014080132823437452,0.03366846084594726,0.16115969924926757,9.704896429443359
248519495929125,-0.0028152274899184704,-0.0010106696281582117,0.00038935415796004236,0.031124621582031248,0.1649006393432617,9.708487731933593
248519505899125,-0.0037915424909442663,-0.0029052423778921366,0.0024583640042692423,0.04159925384521484,0.1649006393432617,9.714772511291503
248519515869125,-0.00307541829533875,-0.0019406455103307962,0.0020359866321086884,0.03980360260009765,0.15607202072143553,9.71671780014038
248519525839125,-0.0009925601771101356,-0.000904409505892545,0.0011486213188618422,0.050128597259521485,0.16744447860717773,9.714922148895264
248519535808125,-0.0020532971248030663,-0.001446096459403634,0.0020178770646452904,0.03202244720458984,0.1680430290222168,9.709385557556152
248519545778125,-0.0017771273851394653,-0.0009779128013178706,0.001900964416563511,0.03232172241210937,0.15218144302368164,9.695469260406494
248519555748125,-0.004251203965395689,-0.0014058827655389905,0.0016237293602898717,0.03247136001586914,0.1444002876281738,9.711330846405028
248519565718125,-0.0022895196452736855,-0.000743554555810988,0.0019068233668804169,0.03037643356323242,0.16280571289062498,9.704746791839598
248519575688125,-0.002712962217628956,-0.0013496900210157037,0.0024628913961350918,0.023642741394042967,0.17193360671997068,9.707739543914794
248519585658125,-0.004071973264217377,-0.0013811152894049883,0.002294047037139535,0.03651157531738281,0.17058686828613281,9.713725048065186
248519595628125,-0.0025244103744626045,-0.0007028082036413252,0.001713744131848216,0.03696048812866211,0.155772745513916,9.718663088989258
248519605598125,-0.0035896748304367065,-0.0026053704787045717,0.0013800500892102718,0.04863222122192382,0.1623568000793457,9.700556938934326
248519615568125,-0.0020695424173027277,-0.0018333201296627522,0.0006937534781172872,0.043245267486572266,0.1614589744567871,9.713276135253906
248519625538125,-0.004159058444201946,-0.003285275539383292,0.0024194817524403334,0.023792378997802732,0.16519991455078123,9.706692080688477
248519635508125,-0.0027134947013109922,-0.0021662150975316763,0.0029696908313781023,0.028730419921875,0.15771803436279297,9.698611650085448
248519645478125,-0.0027944548055529594,-0.0011531487107276917,-0.0006223807577043772,0.0378583137512207,0.15233108062744138,9.710433020782471
248519655447125,-0.004028563853353262,-0.0026871294248849154,0.0011680624447762966,0.029927520751953124,0.1575683967590332,9.707290631103515
248519665417125,-0.0028522454667836428,-0.0028160265646874905,0.0019462381023913622,0.033518823242187495,0.1605611488342285,9.706542443084716
248519675387125,-0.0038863508962094784,-0.0022248048335313797,0.0011952266795560718,0.038756139373779294,0.1592144104003906,9.708338094329834
248519685357125,-0.00293267285451293,-0.0028764803428202868,0.0011387676931917667,0.03995324020385742,0.16160861206054686,9.699359838104247
248519695327125,-0.002782204421237111,-0.0017251957906410098,0.002246642718091607,0.03411737365722656,0.15397709426879883,9.69846201248169
248519705297125,-0.0021110877860337496,-0.002282062778249383,0.00046924897469580173,0.03501519927978516,0.17597382202148437,9.708637369537353
248519715267125,-0.001716939965263009,-0.001790975802578032,0.00030413299100473523,0.03800795135498047,0.1575683967590332,9.698611650085448
248519725237125,-0.0026999127585440874,-0.0011049455497413874,0.0010165285784751177,0.040701428222656245,0.15831658477783203,9.703848966217041
248519735207125,-0.0015606123488396406,-0.002026133006438613,0.002895122393965721,0.03845686416625976,0.1710357810974121,9.722254391479492
248519745177125,-0.0025012409314513206,-0.0017624800093472004,0.00138058268930763,0.02693476867675781,0.17133505630493162,9.70444751663208
248519755147125,-0.0026410568971186876,-0.0016226640436798334,0.001845038030296564,0.027084406280517576,0.14544775085449219,9.703848966217041
248519765117125,-0.004005660768598318,-0.0011464908020570874,0.0013435647124424577,0.02259527816772461,0.1466448516845703,9.713575410461425
248519775087125,-0.003980360459536314,-0.002350772265344858,0.00045087316539138556,0.03800795135498047,0.15427636947631834,9.71671780014038
248519785056125,-0.0034671693574637175,-0.0014391721924766898,0.0015488944482058287,0.03681085052490234,0.17028759307861327,9.708637369537353
248519795026125,-0.0022804648615419865,-0.0027233485598117113,0.0024884575977921486,0.03336918563842773,0.16699556579589842,9.714473236083984
248519804996125,-0.004132693167775869,-0.0013960290234535933,-0.0009195895399898291,0.032920272827148434,0.1571194839477539,9.719411277008057
248519814966125,-0.002290584845468402,-0.0026618295814841986,-0.00021837920940015465,0.03007715835571289,0.16205752487182618,9.720608377838134
248519824936125,-0.002603239845484495,-0.0034109766129404306,0.0006074670236557722,0.03396773605346679,0.17477672119140625,9.714323598480224
248519834906125,-0.003953196108341217,-0.002426938619464636,0.00039840888348408043,0.03426701126098632,0.16759411621093748,9.703250415802001
248519844876125,-0.004322044085711241,-0.0022514364682137966,0.001910019083879888,0.03965396499633789,0.15906477279663084,9.70444751663208
248519854846125,-0.0021374530624598265,-0.0014620753936469555,0.0020479708909988403,0.04159925384521484,0.16759411621093748,9.700706576538085
248519864816125,-0.003299656556919217,5.858954318682663e-05,0.001469532260671258,0.04144961624145507,0.16505027694702148,9.69771382446289
248519874786125,-0.004462392535060644,-0.0019401127938181162,0.0011680624447762966,0.03516483688354492,0.17253215713500974,9.703400053405762
248519884756125,-0.00304638990201056,-0.0026762105990201235,0.0008918926469050348,0.032920272827148434,0.15173253021240232,9.709235919952391
248519894726125,-0.0018687400734052062,-0.001820270554162562,0.0027505126781761646,0.03067570877075195,0.15607202072143553,9.712677584838866
248519904696125,-0.002918558195233345,-0.0031792817171663046,-0.00018455706594977528,0.03651157531738281,0.16340426330566404,9.708637369537353
248519914666125,-0.004455202259123325,-0.0026940538082271814,0.001853826455771923,0.03202244720458984,0.17043723068237304,9.702651865386962
248519924636125,-0.0041460092179477215,-0.001327053178101778,0.0011640676530078053,0.032920272827148434,0.17118541870117188,9.701903677368163
248519934605125,-0.00387383415363729,-0.0022189458832144737,0.0028634308837354183,0.037110125732421874,0.1623568000793457,9.720907653045654
248519944575125,-0.0024647556710988283,-0.0029049760196357965,0.0007366303470917046,0.04848258361816406,0.1545756446838379,9.711929396820068
248519954545125,-0.00239151855930686,-0.001201884588226676,0.00048655952559784055,0.023343466186523436,0.1592144104003906,9.707589906311034
248519964515125,-0.0019656792283058167,-0.0009917612187564373,0.0016737966798245907,0.03172317199707031,0.16729484100341796,9.688436293029785
248519974485125,-0.0014365090755745769,-0.0015403723809868097,-8.069378236541525e-05,0.03142389678955078,0.1596633232116699,9.706542443084716
248519984455125,-0.002261290093883872,-0.0020655477419495583,0.0005691175465472043,0.0282815071105957,0.1640028137207031,9.701754039764404
248519994425125,-0.002168079372495413,-0.002469282830134034,0.0024985778145492077,0.03696048812866211,0.16160861206054686,9.709984107971191
248520004395125,-0.0038570561446249485,-0.0028250813484191895,0.0018991001415997744,0.03666121292114258,0.16445172653198242,9.697264911651612
248520014365125,-0.002877545543015003,-0.0027228158432990313,0.002626675646752119,0.04055179061889648,0.1545756446838379,9.706841718292235
248520024335125,-0.0023723437916487455,-0.0028274781070649624,0.00021252025908324867,0.0522235237121582,0.16460136413574217,9.712378309631347
248520034305125,-0.0031579763162881136,-0.00224930583499372,0.0012884372845292091,0.037708676147460936,0.16415245132446288,9.696815998840332
248520044275125,-0.0022442457266151905,-0.00247567449696362,0.0019441075855866075,0.02184709014892578,0.16909049224853515,9.707140993499756
248520054245125,-0.002529204124584794,-0.0012727247085422277,0.0004953479510731995,0.03441664886474609,0.16280571289062498,9.701155489349365
248520064215125,-0.0023963123094290495,-0.0020700751338154078,0.0013811152894049883,0.029179332733154296,0.15248071823120116,9.713725048065186
248520074185125,-0.003353186184540391,-0.0027569043450057507,0.001323857344686985,0.03067570877075195,0.15203180541992187,9.706542443084716
248520084155125,-0.0013869742397218943,-0.0005962817813269794,0.001008805469609797,0.04234744186401367,0.17507599639892577,9.696367086029053
248520094125125,-0.0013994910987094045,-0.0014391721924766898,0.0006239786162041128,0.030526071166992186,0.16430208892822265,9.715670336914062
248520104095125,-0.0031726236920803785,-0.002590989461168647,0.0016820525052025914,0.028730419921875,0.14634557647705076,9.733776486968994
248520114065125,-0.0030221552588045597,-0.0022501046769320965,0.0020487697329372168,0.04369418029785156,0.1744774459838867,9.698611650085448
248520124035125,-0.003466636873781681,-0.0016852483386173844,0.001776594785042107,0.03651157531738281,0.18375497741699218,9.701305126953125
248520134005125,-0.002835201332345605,-0.0023209447972476482,0.0022455775178968906,0.023044190979003905,0.16519991455078123,9.71058265838623
248520143974125,-0.002282062778249383,-0.0023089605383574963,0.0011086739832535386,0.02977788314819336,0.15203180541992187,9.701604402160644
248520153944125,-0.0028333370573818684,-0.0017635452095419168,0.0008484831196255982,0.033518823242187495,0.15427636947631834,9.706841718292235
248520163914125,-0.00333241350017488,-0.0016551546286791563,0.0021166803780943155,0.04578910675048828,0.1649006393432617,9.70444751663208
248520173884125,-0.004198739770799875,-0.0031728900503367186,0.0018053569365292788,0.05057751007080078,0.1701379554748535,9.719411277008057
248520183854125,-0.003147856332361698,-0.001782453735359013,0.003245328087359667,0.040402153015136714,0.17761983566284179,9.714622873687743
248520193824125,-0.003418966196477413,-0.0016255935188382864,0.001273257308639586,0.02558803024291992,0.1610100616455078,9.703400053405762
248520203794125,-0.0024258734192699194,-0.0015611450653523207,0.0008285093936137855,0.02184709014892578,0.14290391159057617,9.713725048065186
248520213764125,-0.0028192223981022835,-0.0018879148410633206,0.0023550332989543676,0.025438392639160156,0.15263035583496093,9.719710552215576
248520223734125,-0.0013291836949065328,-0.0013243899447843432,0.0004599279200192541,0.03621230010986328,0.16609774017333984,9.697264911651612
248520233704125,-0.0031353395897895098,-0.0017041567480191588,0.0016623451374471188,0.02693476867675781,0.1740285331726074,9.721655841064452
248520243674125,-0.002623746171593666,-0.0013638047967106104,0.000180029688635841,0.029328970336914062,0.16086042404174802,9.705195704650878
248520253644125,-0.0032711606472730637,-0.0016024239594116807,-0.0016977651976048946,0.03067570877075195,0.14469956283569335,9.708637369537353
248520263614125,-0.0034024545457214117,-0.0010663296561688185,0.0011659319279715419,0.03202244720458984,0.1505354293823242,9.70444751663208
248520273584125,-0.0028130970895290375,-0.0027632960118353367,0.0018777948571369052,0.022296002960205077,0.16041151123046873,9.707290631103515
248520283554125,-0.0026325348298996687,-0.001044758129864931,0.0015313175972551107,0.018854338073730468,0.1589151351928711,9.707589906311034
248520293524125,-0.0032373385038226843,-0.0014503574930131435,9.986854274757206e-05,0.033518823242187495,0.16071078643798828,9.694571434783935
248520303494500,-0.003971039317548275,-0.002320412313565612,0.0008399609941989183,0.0474351203918457,0.16594810256958006,9.700257663726806
248520313464500,-0.0017688715597614646,-0.001806155894882977,0.0017177389236167073,0.03067570877075195,0.1680430290222168,9.720907653045654
248520323434500,-0.0018247979460284114,-0.0012538161827251315,0.0007755124825052917,0.03516483688354492,0.1649006393432617,9.719411277008057
248520333404500,-0.002049568807706237,-0.0022413162514567375,0.001032507512718439,0.027084406280517576,0.1500865165710449,9.71013374557495
248520343374500,-0.003410177771002054,-0.0009824400767683983,0.0008303736103698611,0.04339490509033203,0.15741875915527342,9.720907653045654
248520353344500,-0.002770486520603299,-0.0014631407102569938,0.00133850472047925,0.03516483688354492,0.16909049224853515,9.71058265838623
248520363314500,-0.00333134806714952,-0.0008356999605894089,0.0006143912323750556,0.047285482788085934,0.16774375381469725,9.715520699310302
248520373284500,-0.0041489386931061745,-0.0006788397440686822,0.0016040218761190772,0.049230771636962885,0.1623568000793457,9.708338094329834
248520383254500,-0.003097256412729621,-0.0021116205025464296,0.0015182681381702423,0.04414309310913086,0.16819266662597654,9.70354969100952
248520393224500,-0.0017297230660915375,-0.0036541232839226723,0.0009022789890877903,0.03232172241210937,0.16594810256958006,9.692626145935058
248520403194500,-0.0028503811918199062,-0.0019624833948910236,0.0008532768115401268,0.027234043884277342,0.15741875915527342,9.711630121612549
248520413164500,-0.0036101811565458775,-0.002112419344484806,0.001862082164734602,0.03202244720458984,0.15876549758911132,9.712827222442627
248520423134500,-0.0008532768115401268,-0.0013582120882347226,0.0014476943761110306,0.02663549346923828,0.16280571289062498,9.699958388519287
248520433104500,-0.003611779073253274,-0.0009169263648800552,0.0016354472609236836,0.028880057525634766,0.16639701538085935,9.692476508331298
248520443074500,-0.002432531211525202,-0.0029348034877330065,0.0010519486386328936,0.034715924072265626,0.15637129592895507,9.707739543914794
248520453044500,-0.00253479671664536,4.740426811622456e-05,0.0006612628931179643,0.027084406280517576,0.1562216583251953,9.72285294189453
248520463014500,-0.0032506543211638927,-0.00045140579459257424,0.0011648666113615036,0.03501519927978516,0.15682020874023436,9.717615625762939
248520472984500,-0.004187288228422403,-0.0018405106384307146,0.000642354425508529,0.02798223190307617,0.17163433151245117,9.721955116271973
248520482954500,-0.0015073491958901286,-0.0007906925166025758,0.0013749900972470641,0.04339490509033203,0.17387889556884764,9.714024323272705
248520492924500,-0.001184574095532298,-0.0012780509423464537,0.0006418218254111707,0.041000703430175776,0.16639701538085935,9.709984107971191
248520502894500,-0.0035385421942919493,-0.0016884441720321774,0.0007946872501634061,0.031872809600830075,0.1562216583251953,9.706392805480956
248520512864500,-0.0022924491204321384,-0.002494050422683358,0.0022514364682137966,0.03651157531738281,0.1571194839477539,9.724199680328368
248520522834500,-0.0031848743092268705,-0.0020642161834985018,0.0021491709630936384,0.02558803024291992,0.15996259841918944,9.708038819122313
248520532804500,-0.0032551817130297422,-0.0020415792241692543,0.0014958975370973349,0.029179332733154296,0.17133505630493162,9.71581997451782
248520542774500,-0.004169445019215345,0.00010359696898376569,0.0018181400373578072,0.038756139373779294,0.16789339141845702,9.713575410461425
248520552744500,-0.004583832807838917,-0.0018572885310277343,0.001449025934562087,0.036361937713623046,0.16684592819213867,9.709984107971191
248520562714500,-0.003537210635840893,-0.0023345269728451967,0.001422128058038652,0.04578910675048828,0.1701379554748535,9.710881933593749
248520572684500,-0.0026466494891792536,-0.001252484624274075,0.0011608719360083342,0.04878185882568359,0.1640028137207031,9.707739543914794
248520582654500,-0.0024916534312069416,-0.001981391804292798,0.00018881811411119998,0.040102877807617184,0.16115969924926757,9.700108026123047
248520592624500,-0.0008098672842606902,-0.0006471481174230576,0.0011776498286053538,0.03860650177001953,0.1605611488342285,9.698611650085448
248520602594500,-0.0011145329335704446,-0.003376089269295335,0.001978462329134345,0.03965396499633789,0.15592238311767578,9.709385557556152
248520612563500,-0.0016165387351065874,-0.0012980246683582664,0.00170761882327497,0.03232172241210937,0.1580173095703125,9.699808750915526
248520622534500,-0.003737214021384716,-0.00205276464112103,7.483482477255166e-05,0.03007715835571289,0.16415245132446288,9.715520699310302
248520632503500,-0.003877029987052083,-0.0028280108235776424,0.001208009896799922,0.032172084808349606,0.1589151351928711,9.708637369537353
248520642474500,-0.002719353651627898,-0.0010705908061936498,0.0011033476330339909,0.026186580657958983,0.15816694717407226,9.71118120880127
248520652444500,-0.002712962217628956,-0.002569950418546796,-0.00011957593233091757,0.03366846084594726,0.16355390090942382,9.701155489349365
248520662414500,-0.0034879420418292284,-0.0017904432024806738,-0.00041012681322172284,0.03591302490234375,0.16983868026733398,9.708188456726074
248520672384500,-0.0031433289404958487,-0.002662362065166235,-0.00037230990710668266,0.023343466186523436,0.16729484100341796,9.707440268707275
248520682354500,-0.0023252058308571577,-0.0012599414912983775,0.0016106797847896814,0.03396773605346679,0.16250643768310546,9.702053314971923
248520692324500,-0.0010721886064857244,-0.0021409152541309595,0.001091629732400179,0.04578910675048828,0.16041151123046873,9.693075058746338
248520702294500,-0.0022599585354328156,0.0008048072922974825,0.002175003755837679,0.04878185882568359,0.16519991455078123,9.70414824142456
248520712264500,-0.002214152133092284,-0.00021651499264407903,0.0012926984345540404,0.028730419921875,0.16759411621093748,9.702801502990722
248520722234500,-0.002299639629200101,-0.0029699571896344423,0.0022956449538469315,0.03621230010986328,0.17986439971923826,9.711630121612549
248520732204500,-0.002258094260469079,-0.0026549051981419325,0.0005605954211205244,0.03666121292114258,0.17911621170043945,9.704746791839598
248520742174500,-0.003893807763233781,-0.0006817692192271352,7.376955909421667e-05,0.03396773605346679,0.17253215713500974,9.717914900970458
248520752144500,-0.004267449490725994,-0.0031699605751782656,0.0014831144362688065,0.03591302490234375,0.16280571289062498,9.718214176177979
248520762114500,-0.0031438616570085287,-0.00484322477132082,0.0019648801535367966,0.04219780426025391,0.15861585998535155,9.721955116271973
248520772084500,-0.002380599733442068,-0.002953445538878441,0.0018658105982467532,0.036062662506103516,0.16130933685302734,9.709834470367431
248520782054500,-0.002974218223243952,-0.003173955250531435,0.0023190807551145554,0.03965396499633789,0.1527799934387207,9.721805478668212
248520792024500,-0.00336090917699039,-0.002159557305276394,0.002180596347898245,0.04399345550537109,0.1580173095703125,9.70369932861328
248520801994500,-0.0021379857789725065,-0.001561944023706019,0.0013515542959794402,0.040701428222656245,0.1623568000793457,9.693673609161376
248520811964500,-0.002466353354975581,-0.0019742012955248356,0.0014530207263305783,0.03725976333618164,0.16071078643798828,9.705943892669676
248520821934500,-0.003537476761266589,-0.0015755260828882456,0.0013539510546252131,0.042646717071533204,0.16385317611694336,9.713126497650146
248520831904500,-0.0029646309558302164,-0.003582217963412404,0.0017827199772000313,0.041000703430175776,0.17387889556884764,9.72315221710205
248520841874500,-0.0026698189321905375,-0.001517202821560204,0.0021164140198379755,0.034715924072265626,0.1571194839477539,9.712827222442627
248520851844500,-0.0014969628537073731,-0.0020927118603140116,0.0014508900931105018,0.036062662506103516,0.17507599639892577,9.711031571197509
248520861814500,-0.0036634444259107113,-0.0024802018888294697,0.003236806020140648,0.04055179061889648,0.1580173095703125,9.706841718292235
248520871784500,-0.0016817862633615732,-0.0005763080553151667,0.0010894992155954242,0.029478607940673827,0.14993687896728514,9.684396077728271
248520881754500,-0.0019145464757457376,-0.0014796522445976734,0.002602973720058799,0.03666121292114258,0.1701379554748535,9.708338094329834
248520891724500,-0.0032229574862867594,-0.0016168050933629274,0.0028839372098445892,0.04608838195800781,0.17761983566284179,9.734375037384032
248520901694500,-0.0025004418566823006,-0.002794188680127263,6.924218723725062e-06,0.030526071166992186,0.174926358795166,9.713874685668944
248520911664500,-0.0006918892613612115,-0.0002748382103163749,9.853695701167453e-06,0.031872809600830075,0.15726912155151365,9.709086282348633
248520921634500,-0.002412557601928711,-0.001871403306722641,0.0025188177824020386,0.02154781494140625,0.15846622238159178,9.705345342254638
248520931604500,-0.002049568807706237,-0.0012428972404450178,-0.00018349179299548268,0.023942016601562498,0.17163433151245117,9.70968483276367
248520941574500,-0.0015813850332051516,-0.0012503541074693203,0.0019110844004899263,0.03202244720458984,0.16549918975830077,9.712079034423828
248520951544500,-0.0028040423057973385,-0.002119077369570732,0.0013393036788329482,0.03456628646850586,0.16774375381469725,9.69786346206665
248520961514500,-0.0034234935883432627,-0.0026112294290214777,0.001228516222909093,0.051774610900878905,0.1740285331726074,9.711330846405028
248520971484500,-0.0031137678306549788,-0.002764893928542733,0.0017856494523584843,0.05162497329711914,0.15502455749511718,9.721356565856933
248520981454500,-0.0030024477746337652,-0.0015193333383649588,0.002796052722260356,0.05357026214599609,0.1479915901184082,9.701305126953125
248520991424500,-0.0029622339643538,-0.0032325449865311384,0.001014664419926703,0.04519055633544922,0.14245499877929688,9.700556938934326
248521001394500,-0.003593935864046216,-0.0018152105621993542,-0.00020000340009573847,0.035464112091064454,0.165349552154541,9.714622873687743
248521011364500,-0.0031150993891060352,-0.0016402408946305513,0.0011611381778493524,0.04249707946777344,0.16564882736206055,9.708338094329834
248521021334500,-0.002746251644566655,-0.0036962011363357306,0.0016961672808974981,0.03142389678955078,0.1683423042297363,9.71028338317871
248521031304500,-0.004225371405482292,-0.0009896307019516826,0.0006114617572166026,0.026785131072998045,0.16505027694702148,9.72390040512085
248521041274500,-0.002886333968490362,-0.0002580603177193552,0.0014152037911117077,0.03845686416625976,0.1662473777770996,9.707889181518555
248521051244500,-0.002689792774617672,-0.0013571468880400062,0.001502555445767939,0.029179332733154296,0.165349552154541,9.709086282348633
248521061214500,-0.0018820558907464147,-0.00043329631444066763,0.0006900250446051359,0.03336918563842773,0.17193360671997068,9.706093530273437
248521071184500,-0.0027084348257631063,-0.0029372002463787794,0.0034091125708073378,0.025737667846679687,0.17387889556884764,9.704297879028319
248521081154500,-0.002731071785092354,-0.0008106662426143885,0.0013733921805396676,0.03725976333618164,0.16654665298461913,9.69831237487793
248521091124500,-0.0019196064677089453,-0.00038722361205145717,0.0012580773327499628,0.03531447448730469,0.155772745513916,9.70354969100952
248521101094500,-0.002030926523730159,-0.0010013486025854945,0.001261273049749434,0.029628245544433593,0.1527799934387207,9.69771382446289
248521111064500,-0.0026117621455341578,-0.001213602488860488,0.00014194648247212172,0.0330699104309082,0.16415245132446288,9.71731635055542
248521121034500,-0.002373675350099802,-0.0012948289513587952,0.0014556838432326913,0.037110125732421874,0.16879121704101563,9.706841718292235
248521131005500,-0.0021198762115091085,-0.002189118415117264,0.002838397165760398,0.037708676147460936,0.16909049224853515,9.701604402160644
248521140975500,-0.003111637430265546,-0.0018016285030171275,0.0025569009594619274,0.03441664886474609,0.15831658477783203,9.714622873687743
248521150945500,-0.001954493811354041,-0.0020572920329868793,0.0011747203534469008,0.03980360260009765,0.16684592819213867,9.705644617462157
248521160915500,-0.0036828855518251657,-0.0016831178218126297,0.001609081868082285,0.042646717071533204,0.17507599639892577,9.699659113311768
248521170885500,-0.001201884588226676,-0.0005446164286695421,0.0016708672046661377,0.041000703430175776,0.17073650588989256,9.706542443084716
248521180855500,-0.0024716798216104507,-0.001466602785512805,0.0011576761025935411,0.031872809600830075,0.14933832855224607,9.694122521972655
248521190825500,-0.003341468283906579,-0.0010064085945487022,0.0023185480386018753,0.03172317199707031,0.16295535049438475,9.700856214141846
248521200795500,-0.0026056368369609118,-0.0032408006954938173,0.0008641957538202405,0.033818098449707026,0.1696890426635742,9.712079034423828
248521210765500,-0.002947852946817875,-0.0016141419764608145,0.0007619303651154041,0.030226795959472655,0.16310498809814453,9.719710552215576
248521220735500,-0.0023073628544807434,-0.0020450414158403873,0.0016538230702280998,0.03755903854370117,0.17073650588989256,9.712976860046385
248521230705500,-0.0018341189716011286,-0.0024317323695868254,-0.00016351809608750045,0.035464112091064454,0.16894085464477537,9.71013374557495
248521240675500,-0.0023228090722113848,-0.0009353021741844714,0.0005547364708036184,0.03426701126098632,0.15906477279663084,9.700257663726806
248521250645500,-0.0035183019936084747,-0.000940095866099,0.0012740562669932842,0.042048166656494135,0.15951368560791016,9.694421797180174
248521260615500,-0.002582201035693288,-0.001537975505925715,-0.0007257114048115909,0.033219548034667964,0.17328034515380858,9.706841718292235
248521270585500,-0.0025957829784601927,-0.001207477180287242,0.0012511530658230186,0.03591302490234375,0.16415245132446288,9.702801502990722
248521280555500,-0.0024594292044639587,-0.0020698087755590677,0.0021028320770710707,0.030974983978271482,0.1731307075500488,9.707290631103515
248521290525500,-0.002569684060290456,-0.0010466222884133458,0.001543568097986281,0.03995324020385742,0.16205752487182618,9.713725048065186
248521300495500,-0.0028418591246008873,-0.0007403587806038558,0.0012159993639215827,0.03995324020385742,0.1605611488342285,9.700706576538085
248521310465500,-0.003087402554228902,-0.0016580841038376093,0.0011795139871537685,0.029927520751953124,0.17791911087036133,9.696516723632811
248521320435500,-0.0014729943359270692,-0.001981125446036458,0.0014559502014890313,0.03696048812866211,0.1785176612854004,9.695618898010252
248521330406500,-0.004063983913511038,-0.0026011094450950623,0.003002181416377425,0.04055179061889648,0.16505027694702148,9.696666361236572
248521340376500,-0.004334827419370413,-0.0026346652302891016,0.0016077503096312284,0.04519055633544922,0.16819266662597654,9.713276135253906
248521350346500,-0.0037846181076020002,-0.0021427792962640524,0.001067927572876215,0.04399345550537109,0.16115969924926757,9.711929396820068
248521360316500,-0.0037388119380921125,-0.0020237360149621964,0.0021576930303126574,0.03007715835571289,0.1640028137207031,9.705943892669676
248521370286500,-0.0018463695887476206,-0.003139334265142679,0.0023441144730895758,0.02902969512939453,0.16130933685302734,9.705195704650878
248521380256500,-0.00014993596414569765,-0.0010104032699018717,0.0016048208344727755,0.037110125732421874,0.16205752487182618,9.701005851745604
248521390226500,-0.0021781993564218283,-0.0021491709630936384,0.0023877902422100306,0.03456628646850586,0.16460136413574217,9.699060562896728
248521400196500,-0.0029854036401957273,-0.0028394623659551144,0.0020298613235354424,0.03965396499633789,0.15592238311767578,9.72345149230957
248521410166500,-0.0017805894603952765,-0.002469016704708338,0.0015028218040242791,0.03621230010986328,0.17657237243652343,9.717465988159178
248521420136500,-0.0008439557277597487,0.0006495449924841523,0.0004889564006589353,0.03037643356323242,0.17268179473876952,9.70369932861328
248521430106500,-0.0020503676496446133,-0.001543834456242621,0.0019491675775498152,0.03561374969482422,0.16295535049438475,9.711031571197509
248521440076500,-0.0028362665325403214,-0.0011696603614836931,0.0006535397260449827,0.044592005920410155,0.16759411621093748,9.711480484008788
248521450046500,-0.0014000238152220845,-0.00023435817274730653,0.0010104032699018717,0.04399345550537109,0.16729484100341796,9.715520699310302
248521460016500,-0.004993959795683622,-0.0010892328573390841,0.0020626182667911053,0.031124621582031248,0.18255787658691405,9.719860189819336
248521469986500,-0.0028964539524167776,-0.0012101404136046767,0.0013156015193089843,0.03815758895874023,0.17268179473876952,9.722703304290771
248521479956500,-0.0034432008396834135,-0.0030189594253897667,-0.00019520970818120986,0.04279635467529297,0.17253215713500974,9.71686743774414
248521489926500,-0.00492125516757369,-0.0033220271579921246,0.0022714100778102875,0.03681085052490234,0.1731307075500488,9.701604402160644
248521499897500,-0.0030895331874489784,-0.0038599856197834015,0.0010607370641082525,0.03980360260009765,0.1505354293823242,9.703100778198241
248521509867500,-0.0052083441987633705,-0.004326305352151394,0.0021907163318246603,0.05985504150390625,0.14769231491088866,9.69756418685913
248521519837500,-0.0019776634871959686,-0.0024202808272093534,0.001540904981084168,0.061650692749023434,0.14963760375976562,9.707589906311034
248521529807500,-0.004236822947859764,-0.00373135507106781,0.002764893928542733,0.04534019393920898,0.15337854385375976,9.698761287689209
248521539777500,-0.003305781865492463,-0.001546763931401074,0.0024700819049030542,0.03411737365722656,0.16250643768310546,9.686042091369629
248521549747500,-0.0006913566030561924,-0.0009230516152456403,0.0016623451374471188,0.039354689788818356,0.1441010124206543,9.69187795791626
248521559717500,-0.0021576930303126574,-0.00048389637959189713,0.0016450346447527409,0.030825346374511717,0.1619078872680664,9.693823246765136
248521569687500,-0.0019262643763795495,-0.0035547874867916107,0.0010120011866092682,0.026485855865478514,0.1637035385131836,9.718363813781737
248521579657500,-0.002239984693005681,-0.0010511496802791953,0.001900964416563511,0.02259527816772461,0.15936404800415038,9.72315221710205
248521589627500,-0.0029049760196357965,-0.0007744472241029143,0.0014314490836113691,0.02528875503540039,0.1767220100402832,9.731681560516357
248521599597500,-0.003120425855740905,-0.0016341155860573053,0.0009273127070628107,0.037708676147460936,0.1762730972290039,9.71013374557495
248521609567500,-0.003369697602465749,0.0008026767172850668,0.002620816696435213,0.03396773605346679,0.1680430290222168,9.692326870727538
248521619537500,-0.002353701740503311,-0.0009475527331233025,0.001549959764815867,0.038756139373779294,0.1592144104003906,9.69801309967041
248521629508500,-0.001606418751180172,-0.001424791174940765,0.0008982842555269599,0.051774610900878905,0.15696984634399413,9.71028338317871
248521639478500,-0.0034474621061235666,-0.003052515210583806,0.0016309198690578341,0.04144961624145507,0.16774375381469725,9.71028338317871
248521649448500,-0.0033835461363196373,-0.00123783724848181,0.001115864492021501,0.043245267486572266,0.16729484100341796,9.714772511291503
248521659418500,-0.00515747768804431,-0.0029917950741946697,0.0008881642133928835,0.03890577697753906,0.16071078643798828,9.720009827423095
248521669388500,-0.0028101676143705845,-0.0035302862524986267,-0.0004958806093782187,0.03037643356323242,0.16639701538085935,9.719860189819336
248521679358500,-0.0027060380671173334,-0.0023731428664177656,-3.1957933970261365e-05,0.032172084808349606,0.16519991455078123,9.69786346206665
248521689328500,-0.0021819279063493013,-0.001981391804292798,0.001210406655445695,0.04249707946777344,0.16205752487182618,9.703400053405762
248521699298500,-0.0022093583829700947,-0.0021350563038140535,0.001558748190291226,0.029628245544433593,0.16774375381469725,9.706692080688477
248521709268500,-0.0016953683225437999,-0.001671666163019836,0.0006048039067536592,0.03277063522338867,0.16654665298461913,9.698761287689209
248521719238500,-0.002239984693005681,-0.0017994979862123728,0.0017379788914695382,0.051774610900878905,0.1575683967590332,9.700856214141846
248521729208500,-0.0028154938481748104,-0.0014852449530735612,0.000925448490306735,0.042945992279052735,0.15352818145751954,9.71671780014038
248521739178500,-0.0035515916533768177,-0.0019076223252341151,0.000800279900431633,0.031573534393310544,0.16445172653198242,9.706392805480956
248521749148500,-0.0026770094409585,-0.004500475712120533,0.002623746171593666,0.03800795135498047,0.17088614349365233,9.701305126953125
248521759119500,-0.00392762990668416,-0.002198705682530999,0.0008751147543080151,0.04938040924072265,0.17342998275756835,9.709535195159912
248521769089500,-0.0008205199264921248,-0.0017150756902992725,0.0017992316279560328,0.022296002960205077,0.16998831787109375,9.71073229598999
248521779059500,-0.003323891432955861,-0.0022144184913486242,0.0008625978953205049,0.026036943054199218,0.14993687896728514,9.715969612121581
248521789029500,-0.002374474424868822,-0.0004966795677319169,0.0023001721128821373,0.02483984222412109,0.16699556579589842,9.709235919952391
248521798999500,-0.0025867284275591373,-0.0010519486386328936,0.0014836470363661647,0.04144961624145507,0.16445172653198242,9.702651865386962
248521808969500,-0.0031790153589099646,-0.0011385013349354267,0.0021963089238852262,0.029328970336914062,0.16774375381469725,9.713725048065186
248521818939500,-0.0035446672700345516,-0.002498843939974904,0.0011973571963608265,0.0383072265625,0.15831658477783203,9.723750767517089
248521828909500,-0.003093261504545808,-0.002639458980411291,0.0015643407823517919,0.039354689788818356,0.16684592819213867,9.726593881988524
248521838879500,-0.00245090713724494,-0.002555036684498191,0.0020274645648896694,0.024690204620361325,0.1589151351928711,9.694571434783935
248521848849500,-0.001978995045647025,-0.0020764668006449938,0.0012112056137993932,0.033219548034667964,0.15592238311767578,9.711929396820068
248521858819500,-0.002915895078331232,-0.001787779969163239,0.0022327941842377186,0.027383681488037107,0.1541267318725586,9.713874685668944
248521868790500,-0.004670917987823486,-0.0011086739832535386,0.0013765880139544606,0.027084406280517576,0.16265607528686524,9.700706576538085
248521878760500,-0.0012871057260781527,-0.001990979304537177,0.0019654128700494766,0.04683656997680664,0.15382745666503905,9.696516723632811
248521888730500,-0.0032591766212135553,-0.0016258598770946264,0.0019257317762821913,0.033818098449707026,0.14918869094848633,9.7039986038208
248521898700500,-0.0019025622168555856,-0.0007664577569812536,0.0026490462478250265,0.036361937713623046,0.16295535049438475,9.712378309631347
248521908670500,-0.0020535634830594063,-0.0009917612187564373,9.693906031316146e-05,0.04115034103393554,0.15816694717407226,9.714024323272705
248521918640500,-0.002094309777021408,-0.001320927869528532,0.0013558153295889497,0.018555062866210937,0.16744447860717773,9.717914900970458
248521928610500,-0.003135872073471546,-0.0013704627053812146,-0.0015009575290605426,0.031573534393310544,0.1740285331726074,9.715071786499022
248521938580500,-0.0016812535468488932,-0.001966478070244193,0.00021385183208622038,0.02528875503540039,0.16475100173950194,9.712378309631347
248521948550500,-0.0038605183362960815,-0.0030802120454609394,0.0017957695527002215,0.02633621826171875,0.15652093353271485,9.708038819122313
248521958520500,-0.002713228575885296,-0.00011158645065734163,0.0024796691723167896,0.032920272827148434,0.15696984634399413,9.708038819122313
248521968491500,-0.002478603972122073,-0.0011917646043002605,0.002380333375185728,0.04878185882568359,0.17238251953125,9.700706576538085
248521978461500,-0.003334810258820653,-0.0017446368001401424,0.002993126632645726,0.033219548034667964,0.16175824966430663,9.693224696350097
248521988431500,-0.0024676851462572813,-0.002251968951895833,0.0022205437999218702,0.03890577697753906,0.16071078643798828,9.704297879028319
248521998401500,-0.0021638183388859034,-0.0014080132823437452,0.0012471582740545273,0.03486556167602539,0.16265607528686524,9.699210200500488
248522008371500,-0.002030926523730159,-0.0014242585748434067,0.001669269404374063,0.040402153015136714,0.15861585998535155,9.707589906311034
248522018341500,-0.002469549188390374,-0.0012503541074693203,0.0001525991247035563,0.037708676147460936,0.17118541870117188,9.71641852493286
248522028311500,-0.0035547874867916107,-0.0008564725867472589,0.0008008125587366521,0.027533319091796873,0.1710357810974121,9.713874685668944
248522038281500,-0.0027443873696029186,-0.002348109148442745,0.0005310343112796545,0.04608838195800781,0.16924012985229492,9.703250415802001
248522048251500,-0.0032722260802984238,-0.0016671388875693083,0.0002287655370309949,0.041000703430175776,0.16130933685302734,9.701454764556884
248522058222500,-0.002971288748085499,-0.0012282498646527529,0.0015840481501072645,0.03920505218505859,0.1614589744567871,9.692476508331298
248522068192500,-0.0024839304387569427,-0.0007776430575177073,0.0013518205378204584,0.03591302490234375,0.16130933685302734,9.713425772857665
248522078162500,-0.0026354643050581217,-0.002132392954081297,-0.00046605319948866963,0.04085106582641601,0.16654665298461913,9.711929396820068
248522088132500,-0.004343083128333092,-0.0006969492533244193,0.0020181434229016304,0.03441664886474609,0.15786767196655271,9.704297879028319
248522098102500,-0.0032442628871649504,-0.0018785938154906034,0.0017457021167501807,0.026785131072998045,0.1728314323425293,9.71028338317871
248522108072500,-0.002796319080516696,-0.0036392095498740673,0.0018865832826122642,0.04444236831665039,0.15981296081542967,9.700556938934326
248522118042500,-0.002785400254651904,-0.00101146858651191,0.0008135957177728415,0.040701428222656245,0.16220716247558592,9.698162737274169
248522128012500,-0.003337739733979106,-0.002034655073657632,6.524744821945205e-05,0.03651157531738281,0.16205752487182618,9.705794255065918
248522137982500,-0.00202240445651114,-0.0014120079576969147,0.0018407768802717328,0.04085106582641601,0.16864157943725586,9.713126497650146
248522147953500,-0.0035356127191334963,-0.002264485927298665,0.0019912454299628735,0.03037643356323242,0.15517419509887695,9.694421797180174
248522157923500,-0.0046573360450565815,-0.001490571303293109,0.0026351979468017817,0.03815758895874023,0.14888941574096679,9.716119249725342
248522167893500,-0.0026069683954119682,-0.00011957593233091757,0.00031372037483379245,0.03486556167602539,0.15726912155151365,9.69741454925537
248522177863500,-0.00273693073540926,0.0006735134520567954,0.0013528858544304967,0.04115034103393554,0.1514332550048828,9.709834470367431
248522187833500,-0.0035665053874254227,-0.000877511571161449,0.0009046758059412241,0.04608838195800781,0.15816694717407226,9.702502227783203
248522197803500,-0.0031156321056187153,-0.0009379653492942452,0.0012980246683582664,0.0330699104309082,0.15786767196655271,9.709984107971191
248522207773500,-0.002880208659917116,-6.657902849838138e-05,0.0012652678415179253,0.030526071166992186,0.15203180541992187,9.704746791839598
248522217743500,-0.0018969696247950196,-0.002113218419253826,0.0024732777383178473,0.03755903854370117,0.1680430290222168,9.702352590179443
248522227713500,-0.0039007319137454033,-0.003096723696216941,0.0014708638191223145,0.035763387298583985,0.15876549758911132,9.705195704650878
248522237684500,-0.0033358754590153694,-0.002624012529850006,0.00027377295191399753,0.03501519927978516,0.16460136413574217,9.696067810821532
248522247654500,-0.004752411041408777,-0.0012876383261755109,0.0009675264009274542,0.03591302490234375,0.15562310791015624,9.69786346206665
248522257624500,-0.003206445835530758,-0.0019917781464755535,0.001669269404374063,0.0378583137512207,0.16160861206054686,9.724050042724608
248522267594500,-0.0020477045327425003,-0.0007166566210798919,-0.0004695153038483113,0.03531447448730469,0.16175824966430663,9.713425772857665
248522277564500,-0.0026517093647271395,-0.0014253237750381231,0.0022208099253475666,0.035763387298583985,0.15592238311767578,9.69771382446289
248522287534500,-0.0028826056513935328,-0.0007150587625801563,0.0009536779834888875,0.04399345550537109,0.15427636947631834,9.70369932861328
248522297504500,-0.0016562198288738728,-0.0011036139912903309,-2.6631610694494157e-07,0.025887305450439452,0.16130933685302734,9.702801502990722
248522307473792,-0.0030924626626074314,-0.0011153318919241428,0.003311907174065709,0.041000703430175776,0.15936404800415038,9.709535195159912
248522317444792,-0.003230680711567402,-0.0009568737586960196,0.00013448962999973446,0.03725976333618164,0.16310498809814453,9.720458740234374
248522327414792,-0.0043625240214169025,-0.004315386060625315,0.0010277138790115714,0.031124621582031248,0.16430208892822265,9.71118120880127
248522337384792,-0.0019350528018549085,-0.002552906284108758,0.0013201289111748338,0.03396773605346679,0.16849194183349608,9.704896429443359
248522347354792,-0.003058107802644372,-0.0023036343045532703,0.000990962260402739,0.03172317199707031,0.165349552154541,9.705345342254638
248522357324792,-0.0036551884841173887,-0.0010271812789142132,0.0010359697043895721,0.03202244720458984,0.16175824966430663,9.698162737274169
248522367294792,-0.0010759170399978757,-0.00023196132679004222,0.00028336033574305475,0.03232172241210937,0.1614589744567871,9.686491004180908
248522377264792,-0.0018953717080876231,-0.0003352919884491712,0.0012753878254443407,0.030526071166992186,0.14484920043945312,9.705494979858399
248522387234792,-0.002037051832303405,-0.000928377965465188,0.001386175281368196,0.04863222122192382,0.14245499877929688,9.714772511291503
248522397205792,-0.003952663857489824,-0.0018540926976129413,0.00018136126163881272,0.037708676147460936,0.16729484100341796,9.726444244384766
248522407175792,-0.002956641372293234,-0.002740392694249749,0.0008607336785644293,0.03067570877075195,0.17612345962524412,9.74200655517578
248522417145792,-0.003949201665818691,-0.0036365464329719543,0.0028218855150043964,0.043245267486572266,0.17761983566284179,9.713874685668944
248522427115792,-0.0035305526107549667,-0.0038780951872467995,0.0018817896489053965,0.03007715835571289,0.1666962905883789,9.703400053405762
248522437085792,-0.004618720151484013,-0.0016048208344727755,-0.0003528688393998891,0.03666121292114258,0.1596633232116699,9.71686743774414
248522447055792,-0.002406165935099125,-0.0021899172570556402,0.0012900352012366056,0.03800795135498047,0.1605611488342285,9.692177233123779
248522457025792,-0.0032927324064075947,-0.0021315941121429205,0.002650377806276083,0.031124621582031248,0.15547347030639647,9.687089554595946
248522466996792,-0.002712962217628956,-0.0003779025573749095,0.0015065502375364304,0.029328970336914062,0.16160861206054686,9.699060562896728
248522476966792,-0.0030780816450715065,-0.0007219829712994397,0.0015923039754852653,0.03890577697753906,0.16160861206054686,9.703400053405762
248522486936792,-0.0016373114194720984,-0.00021758026559837162,0.002578738844022155,0.04144961624145507,0.15128361740112303,9.699659113311768
248522496906792,-0.0014804512029513717,-0.0022447784431278706,0.0015986956423148513,0.04938040924072265,0.1589151351928711,9.724947868347167
248522506876792,-0.001261805766262114,-0.0025361282750964165,0.0015214639715850353,0.041748891448974604,0.15352818145751954,9.715969612121581
248522516846792,-0.0037348170299082994,-0.002746784361079335,0.001460477476939559,0.03651157531738281,0.16564882736206055,9.722703304290771
248522526816792,-0.001883121207356453,-0.0004990763845853508,-8.868326403899118e-05,0.029927520751953124,0.17088614349365233,9.715221424102783
248522536787792,-0.000966993800830096,-0.002816825406625867,0.0014692660188302398,0.029179332733154296,0.16475100173950194,9.70968483276367
248522546757792,-0.0041156490333378315,-0.00216514989733696,0.002132392954081297,0.022146365356445312,0.15906477279663084,9.69696563644409
248522556727792,-0.0029047098942101,-0.00233825552277267,0.0022173479665070772,0.03725976333618164,0.16909049224853515,9.706392805480956
248522566697792,-0.0022945795208215714,-0.0018082864116877317,0.0013741911388933659,0.045938744354248044,0.16998831787109375,9.702801502990722
248522576667792,-0.002603506203740835,-0.0016623451374471188,0.001791242160834372,0.033818098449707026,0.1710357810974121,9.71671780014038
248522586637792,-0.003748132847249508,-0.0033920682035386562,-0.0003009371866937727,0.040701428222656245,0.16265607528686524,9.712527947235106
248522596607792,-0.003962517250329256,-0.0008460862445645034,0.0007986819837242365,0.05237316131591797,0.16639701538085935,9.719710552215576
248522606578792,-0.002898318227380514,-0.000847950461320579,0.0023672839161008596,0.03980360260009765,0.1575683967590332,9.698761287689209
248522616548792,-0.0032975259236991405,-0.000291616132017225,0.002260757377371192,0.03800795135498047,0.14559738845825196,9.69786346206665
248522626518792,-0.0038754320703446865,-0.0013528858544304967,0.0018319884547963738,0.03980360260009765,0.16744447860717773,9.71686743774414
248522636488792,-0.002475142013281584,-0.0014333132421597838,0.0032495891209691763,0.04129997863769531,0.17133505630493162,9.708637369537353
248522646458792,-0.0018066884949803352,-0.0023065637797117233,0.001261273049749434,0.035464112091064454,0.17028759307861327,9.69771382446289
248522656428792,-0.0026130937039852142,-0.0014207963831722736,0.00012064119800925255,0.041748891448974604,0.1696890426635742,9.704297879028319
248522666398792,-0.002758235903456807,-0.0017297230660915375,0.000969656917732209,0.018555062866210937,0.15322890625,9.701454764556884
248522676369792,-0.00047404266661033034,-0.0016881778137758374,0.0015358449891209602,0.03531447448730469,0.17522563400268554,9.715520699310302
248522686339792,-0.0028991170693188906,-0.002031725598499179,0.0009347695158794522,0.04189852905273437,0.16175824966430663,9.712378309631347
248522696309792,-0.0025097629986703396,-0.001987517112866044,0.00042583944741636515,0.028431144714355466,0.155772745513916,9.71118120880127
248522706279792,-0.0032975259236991405,-0.00261868629604578,0.0023188143968582153,0.04563946914672851,0.1566705711364746,9.7039986038208
248522716249792,-0.004040814470499754,-0.0029611687641590834,0.0043928842060267925,0.0469862075805664,0.16594810256958006,9.718363813781737
248522726219792,-0.0026847326662391424,-0.0013627394801005721,0.0021086910273879766,0.04115034103393554,0.16415245132446288,9.71073229598999
248522736190792,-0.0032059133518487215,-0.001169127761386335,0.0011004181578755379,0.03725976333618164,0.17178396911621094,9.706392805480956
248522746160792,-0.003403253620490432,-0.002216548891738057,-0.0006410228670574725,0.03980360260009765,0.16011223602294922,9.705943892669676
248522756130792,-0.002945722546428442,-0.00361763802357018,0.0011936287628486753,0.03800795135498047,0.15113397979736326,9.701754039764404
248522766100792,-0.0028855351265519857,-0.0008117315010167658,0.0007014766451902688,0.029328970336914062,0.16086042404174802,9.714622873687743
248522776070792,-0.0035273567773401737,-0.0018319884547963738,0.0013313142117112875,0.020201076507568357,0.16130933685302734,9.703848966217041
248522786040792,-0.003043993143364787,-0.002834934974089265,0.001359277404844761,0.049829322052001954,0.15996259841918944,9.716119249725342
248522796011792,-0.0031971249263733625,-0.0023281353060156107,0.0022682142443954945,0.042945992279052735,0.15367781906127928,9.722553666687011
248522805981792,-0.002444781828671694,-0.0002884203568100929,0.001458080718293786,0.017956512451171875,0.16744447860717773,9.72315221710205
248522815951792,-0.0013603427214547992,-0.000648479734081775,0.0010255833622068167,0.026036943054199218,0.1632546257019043,9.711031571197509
248522825921792,-0.002674346324056387,-0.002718821167945862,0.000958205375354737,0.03561374969482422,0.16011223602294922,9.702651865386962
248522835891792,-0.004087952431291342,-0.002582201035693288,0.0008442220860160887,0.04249707946777344,0.15038579177856445,9.694421797180174
248522845861792,-0.003870638320222497,-0.002145176287740469,0.0017957695527002215,0.03845686416625976,0.16250643768310546,9.706093530273437
248522855832792,-0.0026873957831412554,-0.0009739180095493793,0.0024549018125981092,0.03860650177001953,0.16699556579589842,9.70369932861328
248522865802792,-0.0038578552193939686,-0.002287921728566289,0.0016327840276062489,0.03232172241210937,0.16355390090942382,9.705943892669676
248522875772792,-0.0037971350830048323,-0.0018887137994170189,0.0011819108622148633,0.049829322052001954,0.15771803436279297,9.706392805480956
248522885742792,-0.0031364047899842262,-0.0019523634109646082,0.0020477045327425003,0.03815758895874023,0.1605611488342285,9.704896429443359
248522895712792,-0.0031036478467285633,-0.0020389161072671413,0.001948634977452457,0.03950432739257812,0.15726912155151365,9.705195704650878
248522905682792,-0.0035689021460711956,-0.001291100517846644,0.0012737899087369442,0.03621230010986328,0.1592144104003906,9.71028338317871
248522915652792,-0.0026706180069595575,-0.0025603631511330605,0.001439971150830388,0.03531447448730469,0.1696890426635742,9.708487731933593
248522925623792,-0.004036286845803261,-0.003576891729608178,0.0015821839915588498,0.036062662506103516,0.15816694717407226,9.701155489349365
248522935593792,-0.0027776770293712616,-0.0010868359822779894,0.000746750389225781,0.031573534393310544,0.1518821678161621,9.706243167877197
248522945563792,-0.0023957795929163694,-0.001255680457688868,0.001437308033928275,0.025737667846679687,0.16310498809814453,9.700556938934326
248522955533792,-0.0031902005430310965,-0.0035489285364747047,0.0008828379213809967,0.03366846084594726,0.1696890426635742,9.692775783538817
248522965503792,-0.0033161682076752186,-0.002040247665718198,0.00037390782381407917,0.039354689788818356,0.1701379554748535,9.697115274047851
248522975474792,-0.00221974472515285,-0.0015483618481084704,0.002430134452879429,0.04519055633544922,0.17298106994628906,9.717465988159178
248522985444792,-0.0022210762836039066,-0.0013334447285160422,0.0011651329696178436,0.046537294769287106,0.16654665298461913,9.713425772857665
248522995414792,-0.0026431872975081205,-0.002746518002822995,-0.0004993426846340299,0.05850830307006836,0.1545756446838379,9.708038819122313
248523005384792,-0.0012652678415179253,-0.0026554379146546125,0.0012652678415179253,0.052073886108398436,0.1589151351928711,9.707889181518555
248523015354792,-0.003293797606602311,-0.0026043052785098553,0.0016018913593143225,0.041000703430175776,0.1683423042297363,9.703100778198241
248523025324792,-0.00404507527127862,-0.0022090920247137547,0.0005446164286695421,0.033518823242187495,0.15981296081542967,9.713874685668944
248523035295792,-0.003287938656285405,-0.002286856295540929,0.001282312092371285,0.017357962036132813,0.16594810256958006,9.709086282348633
248523045265792,-0.004765726625919342,-0.002490321872755885,0.0006831008358858526,0.029478607940673827,0.15846622238159178,9.711031571197509
248523055235792,-0.00398728484287858,-0.0012628709664568305,0.0020780644845217466,0.03516483688354492,0.15307926864624022,9.705345342254638
248523065205792,-0.004490089602768421,-0.001184041379019618,0.000996554852463305,0.04249707946777344,0.16819266662597654,9.707889181518555
248523075175792,-0.0035989959724247456,-0.0021760689560323954,0.00019041601626668125,0.028131869506835935,0.16250643768310546,9.706841718292235
248523085145792,-0.0019739349372684956,-0.00119629199616611,0.0017233315156772733,0.031872809600830075,0.16340426330566404,9.703100778198241
248523095116792,-0.0031670311000198126,-0.0020836573094129562,0.0002865561400540173,0.03681085052490234,0.165349552154541,9.700407301330566
248523105086792,-0.0027379959356039762,-0.0017161410069093108,0.0011909656459465623,0.03426701126098632,0.1592144104003906,9.719860189819336
248523115056792,-0.0018913770327344537,-0.0008274441352114081,-0.0004410194815136492,0.04803367080688476,0.15996259841918944,9.706841718292235
248523125026792,-0.0023904533591121435,-0.0013635384384542704,0.0017297230660915375,0.049530046844482416,0.16789339141845702,9.693523971557617
248523134996792,-0.0033981935121119022,-0.002499376656487584,0.002252768026664853,0.03725976333618164,0.16849194183349608,9.701155489349365
248523144967792,-0.0018034926615655422,-0.0013763216556981206,0.0028157602064311504,0.04773439559936523,0.15786767196655271,9.695918173217773
248523154937792,-0.003287405939772725,-0.0005515406373888254,0.0023941819090396166,0.0378583137512207,0.15083470458984374,9.69696563644409
248523164907792,-0.00421471893787384,-0.001234641415067017,-0.00014993596414569765,0.04219780426025391,0.1632546257019043,9.708038819122313
248523174877792,-0.002669286448508501,-0.0012807141756638885,0.0014969628537073731,0.04683656997680664,0.1596633232116699,9.700706576538085
248523184847792,-0.0035635759122669697,-0.0018186726374551654,0.0006599313346669078,0.026186580657958983,0.16041151123046873,9.702801502990722
248523194818792,-0.0010335728293284774,-0.0012767193838953972,0.0015270565636456013,0.02498947982788086,0.1527799934387207,9.703848966217041
248523204788792,-0.0029441246297210455,-0.0008341020438820124,0.0020841897930949926,0.030526071166992186,0.1605611488342285,9.701903677368163
248523214758792,-0.003624029690399766,-0.002573412610217929,0.002229332225397229,0.046537294769287106,0.16519991455078123,9.700257663726806
248523224728792,-0.0043769050389528275,-0.0015941682504490018,0.0012066783383488655,0.03277063522338867,0.16115969924926757,9.714024323272705
248523234698792,-0.0037321539130061865,-0.001978462329134345,0.001327053178101778,0.03860650177001953,0.16894085464477537,9.707589906311034
248523244668792,-0.002067412016913295,-0.002377936616539955,0.0013187973527237773,0.042048166656494135,0.15831658477783203,9.696067810821532
248523254639792,-0.0026021746452897787,-0.0008261125767603517,0.0020908478181809187,0.04159925384521484,0.1580173095703125,9.708188456726074
248523264609792,-0.003620034782215953,-0.003525492735207081,0.002561161993071437,0.039055414581298825,0.16430208892822265,9.714473236083984
248523274579792,-0.004202734678983688,-0.0023310647811740637,0.0018583538476377726,0.03202244720458984,0.15682020874023436,9.7039986038208
248523284549792,-0.001847967505455017,-0.0021840583067387342,0.002665025182068348,0.03651157531738281,0.1541267318725586,9.711929396820068
248523294519792,-0.003471963107585907,-0.0031758195254951715,0.0027230822015553713,0.030226795959472655,0.15906477279663084,9.706991355895996
248523304491125,-0.002517486223950982,-0.0038000645581632853,0.0012892362428829074,0.03426701126098632,0.17088614349365233,9.712677584838866
248523314461125,-0.0029462550301104784,-0.0009038768475875258,0.001976065570488572,0.048931496429443354,0.15861585998535155,9.713276135253906
248523324431125,-0.00227806787006557,-0.0017302557826042175,0.0017531589837744832,0.041748891448974604,0.1640028137207031,9.692177233123779
248523334401125,-0.002169144805520773,-0.0028008464723825455,0.0014895059866830707,0.02289455337524414,0.14649521408081054,9.698611650085448
248523344371125,-0.0009123989730142057,0.0005992112564854324,0.0007297061383724213,0.038756139373779294,0.14694412689208983,9.693075058746338
248523354342125,-0.0032924660481512547,-0.0021931130904704332,0.0037736992817372084,0.04713584518432617,0.15367781906127928,9.692925421142577
248523364312125,-0.00038269624928943813,-0.0017441042000427842,-8.948221511673182e-05,0.04474164352416992,0.1740285331726074,9.706692080688477
248523374282125,-0.0025539714843034744,-0.002621349412947893,0.002034655073657632,0.027682956695556638,0.17522563400268554,9.711779759216308
248523384252125,-0.004786232952028513,-0.002145176287740469,0.0006988134700804949,0.033818098449707026,0.1649006393432617,9.708188456726074
248523394222125,-0.002922286745160818,-0.0006628608098253608,0.001976065570488572,0.03486556167602539,0.16879121704101563,9.707889181518555
248523404193125,-0.0028807413764297962,-0.002159823663532734,0.0022213426418602467,0.028880057525634766,0.16385317611694336,9.715071786499022
248523414163125,-0.00270710326731205,-0.0023241406306624413,0.0005118595436215401,0.02663549346923828,0.16355390090942382,9.707140993499756
248523424133125,-0.004281031433492899,-0.003632285399362445,0.0016450346447527409,0.033219548034667964,0.16280571289062498,9.69786346206665
248523434103125,-0.0022274679504334927,-0.0012250541476532817,0.0006269080913625658,0.03995324020385742,0.16175824966430663,9.710881933593749
248523444073125,-0.002686863299459219,-0.002270611235871911,0.001490304945036769,0.03396773605346679,0.16265607528686524,9.703250415802001
248523454044125,-0.003425091505050659,-0.0019326560432091355,0.002100701443850994,0.04025251541137695,0.1744774459838867,9.705195704650878
248523464014125,-0.0036519928835332394,-0.002323341788724065,0.0014354437589645386,0.04129997863769531,0.15726912155151365,9.722703304290771
248523473984125,-0.0022479742765426636,-0.002305498579517007,0.0012812467757612467,0.03666121292114258,0.15427636947631834,9.709235919952391
248523483954125,-0.0018660769565030932,-0.0013699301052838564,0.0015941682504490018,0.030526071166992186,0.15876549758911132,9.693075058746338
248523493924125,-0.001472728094086051,-0.0012309130979701877,0.0009816411184147,0.036361937713623046,0.1662473777770996,9.701305126953125
248523503895125,-0.0031071100383996964,-0.0011592740193009377,0.0023225427139550447,0.028880057525634766,0.17028759307861327,9.702801502990722
248523513865125,-0.0022740731947124004,0.00021225394448265433,0.0034384073223918676,0.03531447448730469,0.15322890625,9.702202952575684
248523523835125,-0.0021632856223732233,-0.0034642398823052645,0.0007819040911272168,0.043544542694091797,0.16115969924926757,9.692476508331298
248523533805125,-0.0018959043081849813,-0.0033372072502970695,0.0015014902455732226,0.031573534393310544,0.16220716247558592,9.712228672027587
248523543775125,-0.0036637107841670513,-0.0025425199419260025,0.0019244002178311348,0.03501519927978516,0.17687164764404295,9.730035546875
248523553746125,-0.0016415724530816078,-0.001957423286512494,5.4328484111465514e-05,0.027084406280517576,0.17328034515380858,9.715371061706543
248523563716125,-0.0007603325066156685,-0.0034650389570742846,0.0014298511669039726,0.02289455337524414,0.16220716247558592,9.715071786499022
248523573686125,-0.002092445734888315,-0.0026610305067151785,0.0022008363157510757,0.025438392639160156,0.16519991455078123,9.713725048065186
248523583656125,-0.0033981935121119022,-0.0022418489679694176,0.0004665858286898583,0.029628245544433593,0.15637129592895507,9.70414824142456
248523593627125,-0.003418699838221073,-0.0011614045361056924,0.0015821839915588498,0.04159925384521484,0.16385317611694336,9.705644617462157
248523603597125,-0.0025840650778263807,-0.0019233349012210965,0.0014863101532682776,0.048183308410644526,0.17223288192749023,9.699359838104247
248523613567125,-0.0024525050539523363,-0.002644785214215517,0.0021555626299232244,0.0383072265625,0.1406593475341797,9.719411277008057
248523623537125,-0.0035662390291690826,-0.0030692932195961475,0.00037923414492979646,0.03860650177001953,0.14395137481689452,9.702502227783203
248523633507125,-0.002095108851790428,-0.002609098795801401,0.0010452907299622893,0.027383681488037107,0.15562310791015624,9.693673609161376
248523643478125,-0.0022093583829700947,-0.0010596717474982142,0.0019885823130607605,0.03995324020385742,0.1605611488342285,9.687239192199707
248523653448125,-0.004238420631736517,-0.001674861996434629,0.0021289309952408075,0.03725976333618164,0.14559738845825196,9.709235919952391
248523663418125,-0.0029047098942101,-0.0023124227300286293,0.0010050770360976458,0.045938744354248044,0.15771803436279297,9.699659113311768
248523673388125,-0.0022277343086898327,-0.0020546286832541227,0.0011438276851549745,0.023792378997802732,0.16026187362670896,9.699808750915526
248523683358125,-0.0030341395176947117,-0.0022626216523349285,0.002245843643322587,0.03441664886474609,0.1505354293823242,9.709235919952391
248523693329125,-0.0036972665693610907,-0.0020397149492055178,0.002091380301862955,0.043544542694091797,0.15951368560791016,9.712677584838866
248523703299125,-0.002061286708340049,-0.002844256116077304,0.00041332258842885494,0.04474164352416992,0.1623568000793457,9.708637369537353
248523713269125,-0.0043840957805514336,-0.002460494404658675,0.0015712650492787361,0.02558803024291992,0.1623568000793457,9.694272159576416
248523723239125,-0.003576891729608178,-0.001440237509086728,0.00017496968212071806,0.04085106582641601,0.16340426330566404,9.715371061706543
248523733210125,-0.0023315974976867437,-0.0034551850985735655,0.0018434401135891676,0.03396773605346679,0.165349552154541,9.706243167877197
248523743180125,-0.0024549018125981092,-0.001689509372226894,0.0009664611425250769,0.03501519927978516,0.1632546257019043,9.709834470367431
248523753150125,-0.0041191112250089645,0.0007206514128483832,0.0007422229973599315,0.03950432739257812,0.15532383270263672,9.702951140594482
248523763120125,-0.0017859158106148243,-0.001445830101147294,0.0016269250772893429,0.03860650177001953,0.1589151351928711,9.69801309967041
248523773090125,-0.0035180358681827784,-0.0012884372845292091,-0.0002745719102676958,0.045938744354248044,0.16340426330566404,9.718214176177979
248523783061125,-0.002281796419993043,-0.002198972040787339,0.0017595505341887474,0.02558803024291992,0.16998831787109375,9.733177936553954
248523793031125,-0.0021704763639718294,-0.0035334820859134197,0.001469532260671258,0.03172317199707031,0.15831658477783203,9.715071786499022
248523803001125,-0.00358807691372931,-0.001207477180287242,0.0025036376900970936,0.03411737365722656,0.15831658477783203,9.693823246765136
248523812971125,-0.003460245206952095,-0.0010274475207552314,0.0009893643436953425,0.0383072265625,0.15726912155151365,9.714622873687743
248523822942125,-0.003543868428096175,-0.0013065468519926071,0.0020383833907544613,0.04085106582641601,0.16684592819213867,9.707290631103515
248523832912125,-0.0030599720776081085,-0.0015699334908276796,0.00037763622822239995,0.03531447448730469,0.1619078872680664,9.70444751663208
248523842882125,-0.0028240159153938293,-0.0013749900972470641,0.001532382913865149,0.03531447448730469,0.16115969924926757,9.681253688049315
248523852852125,-0.0021403825376182795,-0.0018780612153932452,0.0010697918478399515,0.044592005920410155,0.16909049224853515,9.698162737274169
248523862822125,-0.0015464976895600557,-0.001487109111621976,-0.0006146575906313956,0.036062662506103516,0.1619078872680664,9.71058265838623
248523872793125,-0.0005787048721686006,6.151902198325843e-05,0.0008623315370641649,0.044592005920410155,0.15292963104248045,9.711929396820068
248523882763125,-0.0015962987672537565,-0.0012141350889578462,0.001088433898985386,0.045938744354248044,0.16654665298461913,9.699210200500488
248523892733125,-0.003171025775372982,-0.0031816784758120775,9.667274571256712e-05,0.03621230010986328,0.16894085464477537,9.707440268707275
248523902703125,-0.003549727378413081,-0.002752376953139901,0.00013875069271307439,0.027084406280517576,0.15397709426879883,9.719112001800536
248523912674125,-0.00239151855930686,-0.0015049523208290339,0.0008407599525526166,0.022445640563964843,0.16071078643798828,9.718663088989258
248523922644125,-0.004195277579128742,-0.0017680726014077663,6.764429417671636e-05,0.01975216369628906,0.1762730972290039,9.707589906311034
248523932614125,-0.0030887341126799583,-0.0024658208712935448,0.0004394215648062527,0.029628245544433593,0.16894085464477537,9.703250415802001
248523942584125,-0.0029763488564640284,-0.002269545802846551,0.001374457380734384,0.026186580657958983,0.17193360671997068,9.689483756256102
248523952555125,-0.0010370349045842886,-0.00152306177187711,0.0015124091878533363,0.04638765716552734,0.16071078643798828,9.69157868270874
248523962525125,-0.0020530307665467262,-0.0008143946761265397,0.001976065570488572,0.047884033203124995,0.1610100616455078,9.67242506942749
248523972495125,-0.0021350563038140535,-0.0006636597099713981,0.0012743226252496243,0.03591302490234375,0.1589151351928711,9.701155489349365
248523982465125,-0.0030397321097552776,-0.0006258428329601884,0.0024610271211713552,0.03621230010986328,0.16086042404174802,9.727790982818602
248523992435125,-0.0035902075469493866,-0.0025662221014499664,0.0018753979820758104,0.042646717071533204,0.17986439971923826,9.720758015441893
248524002406125,-0.0037997981999069452,-0.0013845774810761213,0.002058357233181596,0.05626373901367187,0.15876549758911132,9.72330185470581
248524012376125,-0.0028360001742839813,-0.001118527608923614,0.0003323625132907182,0.029478607940673827,0.1605611488342285,9.713126497650146
248524022346125,-0.002204564632847905,-0.002174471039324999,-0.0008612662786617875,0.03651157531738281,0.14634557647705076,9.70354969100952
